"USUBJID","STUDYID","AEBODSYS","AELLT","AEDECOD","AEHLT","AEHLGT","AETOXGR","AESOC","AESER","AEREL","AETERM","AESEV","COUNTRY","SITEID","SUBJID","AGE","SEX","ARMCD","ARM","ACTARMCD","ACTARM","RACE","TRTSDTM","TRTEDTM","EOSDY","EOSDT","STRATA1","STRATA2","BMRKR1","BMRKR2","REGION1","SAFFL","EOSSTT","EOTSTT","DCSREAS","DTHDT","ASTDTM","ASTDY","AENDTM","AENDY","LDOSEDTM","AESEQ","AEOUT","TRTEMFL","CQ01NAM","SMQ01NAM","SMQ01SC","SMQ02NAM","SMQ02SC","AEACN"
"AB12345-BRA-1-id-171","AB12345","cl D.1","llt D.1.1.4.2","dcd D.1.1.4.2","hlt D.1.1.4","hlgt D.1.1","3","cl D","N","N","trm D.1.1.4.2","MODERATE","BRA","BRA-1","id-171",29.7513075669048,"F","ARM B","B: Placebo","ARM B","B: Placebo","ASIAN",2020-12-12 12:18:31.683,2022-12-13 00:18:31.683,731,2022-12-13,"A","S2",7.01712227027429,"HIGH","South America","Y","COMPLETED","COMPLETED",NA,NA,2022-09-03 12:18:31.683,630,2022-10-03 12:18:31.683,660,2021-07-18 03:52:21.07509,1,"RECOVERED/RESOLVED","Y",NA,NA,NA,NA,NA,"DOSE NOT CHANGED"
"AB12345-BRA-1-id-171","AB12345","cl C.1","llt C.1.1.1.3","dcd C.1.1.1.3","hlt C.1.1.1","hlgt C.1.1","4","cl C","N","Y","trm C.1.1.1.3","SEVERE","BRA","BRA-1","id-171",29.7513075669048,"F","ARM B","B: Placebo","ARM B","B: Placebo","ASIAN",2020-12-12 12:18:31.683,2022-12-13 00:18:31.683,731,2022-12-13,"A","S2",7.01712227027429,"HIGH","South America","Y","COMPLETED","COMPLETED",NA,NA,2022-11-29 12:18:31.683,717,2022-12-02 12:18:31.683,720,2022-10-22 02:00:31.293702,2,"RECOVERING/RESOLVING","Y",NA,"C.1.1.1.3/B.2.2.3.1 aesi","BROAD",NA,NA,"NOT EVALUABLE"
"AB12345-BRA-1-id-177","AB12345","cl D.1","llt D.1.1.4.2","dcd D.1.1.4.2","hlt D.1.1.4","hlgt D.1.1","3","cl D","N","N","trm D.1.1.4.2","MODERATE","BRA","BRA-1","id-177",38.9335081415658,"F","ARM B","B: Placebo","ARM B","B: Placebo","ASIAN",2019-08-31 18:46:20.683,2021-08-31 06:46:20.683,731,2021-08-31,"C","S1",9.37806473517498,"MEDIUM","South America","Y","COMPLETED","COMPLETED",NA,NA,2021-03-28 18:46:20.683,575,2021-08-19 18:46:20.683,719,2021-01-14 08:28:34.538907,1,"UNKNOWN","Y",NA,NA,NA,NA,NA,"DOSE RATE REDUCED"
"AB12345-BRA-1-id-23","AB12345","cl D.1","llt D.1.1.1.1","dcd D.1.1.1.1","hlt D.1.1.1","hlgt D.1.1","5","cl D","Y","Y","trm D.1.1.1.1","SEVERE","BRA","BRA-1","id-23",41.3307879695206,"F","ARM A","A: Drug X","ARM A","A: Drug X","AMERICAN INDIAN OR ALASKA NATIVE",2019-09-07 07:32:49.683,2021-09-06 19:32:49.683,731,2021-09-06,"A","S2",6.84753348395589,"LOW","South America","Y","COMPLETED","COMPLETED",NA,NA,2020-02-04 07:32:49.683,150,2021-02-28 07:32:49.683,540,2020-01-01 18:40:48.087902,1,"FATAL","Y",NA,NA,NA,NA,NA,"NOT EVALUABLE"
"AB12345-BRA-1-id-23","AB12345","cl C.2","llt C.2.1.2.1","dcd C.2.1.2.1","hlt C.2.1.2","hlgt C.2.1","2","cl C","N","Y","trm C.2.1.2.1","MODERATE","BRA","BRA-1","id-23",41.3307879695206,"F","ARM A","A: Drug X","ARM A","A: Drug X","AMERICAN INDIAN OR ALASKA NATIVE",2019-09-07 07:32:49.683,2021-09-06 19:32:49.683,731,2021-09-06,"A","S2",6.84753348395589,"LOW","South America","Y","COMPLETED","COMPLETED",NA,NA,2020-04-07 07:32:49.683,213,2020-09-26 07:32:49.683,385,2020-01-03 16:19:22.846318,2,"RECOVERED/RESOLVED","Y",NA,NA,NA,NA,NA,"DRUG WITHDRAWN"
"AB12345-BRA-1-id-23","AB12345","cl B.2","llt B.2.2.3.1","dcd B.2.2.3.1","hlt B.2.2.3","hlgt B.2.2","1","cl B","Y","N","trm B.2.2.3.1","MILD","BRA","BRA-1","id-23",41.3307879695206,"F","ARM A","A: Drug X","ARM A","A: Drug X","AMERICAN INDIAN OR ALASKA NATIVE",2019-09-07 07:32:49.683,2021-09-06 19:32:49.683,731,2021-09-06,"A","S2",6.84753348395589,"LOW","South America","Y","COMPLETED","COMPLETED",NA,NA,2020-07-10 07:32:49.683,307,2021-05-07 07:32:49.683,608,2019-11-25 22:39:15.686499,3,"NOT RECOVERED/NOT RESOLVED","Y",NA,"C.1.1.1.3/B.2.2.3.1 aesi","BROAD",NA,NA,"DOSE RATE REDUCED"
"AB12345-BRA-1-id-59","AB12345","cl B.1","llt B.1.1.1.1","dcd B.1.1.1.1","hlt B.1.1.1","hlgt B.1.1","5","cl B","Y","Y","trm B.1.1.1.1","SEVERE","BRA","BRA-1","id-59",26.698952227365,"F","ARM A","A: Drug X","ARM A","A: Drug X","ASIAN",2020-03-22 23:54:46.683,2022-03-23 11:54:46.683,731,2022-03-23,"C","S1",3.80601612707051,"LOW","South America","Y","COMPLETED","COMPLETED",NA,NA,2020-07-30 23:54:46.683,130,2021-01-11 23:54:46.683,295,2020-07-08 04:34:24.44088,1,"FATAL","Y",NA,NA,NA,NA,NA,"NOT EVALUABLE"
"AB12345-BRA-1-id-59","AB12345","cl B.2","llt B.2.1.2.1","dcd B.2.1.2.1","hlt B.2.1.2","hlgt B.2.1","3","cl B","N","N","trm B.2.1.2.1","MODERATE","BRA","BRA-1","id-59",26.698952227365,"F","ARM A","A: Drug X","ARM A","A: Drug X","ASIAN",2020-03-22 23:54:46.683,2022-03-23 11:54:46.683,731,2022-03-23,"C","S1",3.80601612707051,"LOW","South America","Y","COMPLETED","COMPLETED",NA,NA,2020-12-18 23:54:46.683,271,2021-07-07 23:54:46.683,472,2020-06-23 19:24:50.297726,2,"RECOVERING/RESOLVING","Y",NA,NA,NA,NA,NA,"UNKNOWN"
"AB12345-BRA-1-id-59","AB12345","cl B.1","llt B.1.1.1.1","dcd B.1.1.1.1","hlt B.1.1.1","hlgt B.1.1","5","cl B","Y","Y","trm B.1.1.1.1","SEVERE","BRA","BRA-1","id-59",26.698952227365,"F","ARM A","A: Drug X","ARM A","A: Drug X","ASIAN",2020-03-22 23:54:46.683,2022-03-23 11:54:46.683,731,2022-03-23,"C","S1",3.80601612707051,"LOW","South America","Y","COMPLETED","COMPLETED",NA,NA,2021-05-20 23:54:46.683,424,2022-01-30 23:54:46.683,679,2020-11-02 09:58:21.356174,3,"FATAL","Y",NA,NA,NA,NA,NA,"NOT EVALUABLE"
"AB12345-BRA-1-id-59","AB12345","cl C.1","llt C.1.1.1.3","dcd C.1.1.1.3","hlt C.1.1.1","hlgt C.1.1","4","cl C","N","Y","trm C.1.1.1.3","SEVERE","BRA","BRA-1","id-59",26.698952227365,"F","ARM A","A: Drug X","ARM A","A: Drug X","ASIAN",2020-03-22 23:54:46.683,2022-03-23 11:54:46.683,731,2022-03-23,"C","S1",3.80601612707051,"LOW","South America","Y","COMPLETED","COMPLETED",NA,NA,2021-10-10 23:54:46.683,567,2021-12-26 23:54:46.683,644,2020-12-14 04:43:43.284218,4,"RECOVERING/RESOLVING","Y",NA,"C.1.1.1.3/B.2.2.3.1 aesi","BROAD",NA,NA,"DRUG WITHDRAWN"
"AB12345-BRA-1-id-59","AB12345","cl D.1","llt D.1.1.4.2","dcd D.1.1.4.2","hlt D.1.1.4","hlgt D.1.1","3","cl D","N","N","trm D.1.1.4.2","MODERATE","BRA","BRA-1","id-59",26.698952227365,"F","ARM A","A: Drug X","ARM A","A: Drug X","ASIAN",2020-03-22 23:54:46.683,2022-03-23 11:54:46.683,731,2022-03-23,"C","S1",3.80601612707051,"LOW","South America","Y","COMPLETED","COMPLETED",NA,NA,2022-01-10 23:54:46.683,659,2022-01-11 23:54:46.683,660,2021-01-05 03:13:52.372984,5,"RECOVERED/RESOLVED","Y",NA,NA,NA,NA,NA,"NOT APPLICABLE"
"AB12345-BRA-1-id-9","AB12345","cl C.1","llt C.1.1.1.3","dcd C.1.1.1.3","hlt C.1.1.1","hlgt C.1.1","4","cl C","N","Y","trm C.1.1.1.3","SEVERE","BRA","BRA-1","id-9",34.526353996362,"M","ARM C","C: Combination","ARM C","C: Combination","ASIAN",2020-04-09 14:39:09.683,2022-04-10 02:39:09.683,731,2022-04-10,"A","S1",7.80593705282382,"HIGH","South America","Y","COMPLETED","COMPLETED",NA,NA,2021-06-01 14:39:09.683,418,2021-09-22 14:39:09.683,531,2020-04-23 09:25:11.335854,1,"UNKNOWN","Y",NA,"C.1.1.1.3/B.2.2.3.1 aesi","BROAD",NA,NA,"DOSE NOT CHANGED"
"AB12345-BRA-11-id-8","AB12345","cl B.1","llt B.1.1.1.1","dcd B.1.1.1.1","hlt B.1.1.1","hlgt B.1.1","5","cl B","Y","Y","trm B.1.1.1.1","SEVERE","BRA","BRA-11","id-8",29.4238596551891,"F","ARM A","A: Drug X","ARM A","A: Drug X","ASIAN",2020-06-17 02:02:07.683,2022-06-17 14:02:07.683,731,2022-06-17,"C","S1",5.48012872308756,"MEDIUM","South America","Y","COMPLETED","COMPLETED",NA,NA,2021-04-27 02:02:07.683,314,2022-05-15 02:02:07.683,697,2020-09-18 23:18:29.896542,1,"FATAL","Y",NA,NA,NA,NA,NA,"NOT EVALUABLE"
"AB12345-BRA-11-id-8","AB12345","cl D.2","llt D.2.1.5.3","dcd D.2.1.5.3","hlt D.2.1.5","hlgt D.2.1","1","cl D","N","Y","trm D.2.1.5.3","MILD","BRA","BRA-11","id-8",29.4238596551891,"F","ARM A","A: Drug X","ARM A","A: Drug X","ASIAN",2020-06-17 02:02:07.683,2022-06-17 14:02:07.683,731,2022-06-17,"C","S1",5.48012872308756,"MEDIUM","South America","Y","COMPLETED","COMPLETED",NA,NA,2021-12-05 02:02:07.683,536,2022-05-01 02:02:07.683,683,2021-10-17 22:33:11.572039,2,"NOT RECOVERED/NOT RESOLVED","Y","D.2.1.5.3/A.1.1.1.1 aesi",NA,NA,NA,NA,"DOSE INCREASED"
"AB12345-BRA-11-id-8","AB12345","cl C.1","llt C.1.1.1.3","dcd C.1.1.1.3","hlt C.1.1.1","hlgt C.1.1","4","cl C","N","Y","trm C.1.1.1.3","SEVERE","BRA","BRA-11","id-8",29.4238596551891,"F","ARM A","A: Drug X","ARM A","A: Drug X","ASIAN",2020-06-17 02:02:07.683,2022-06-17 14:02:07.683,731,2022-06-17,"C","S1",5.48012872308756,"MEDIUM","South America","Y","COMPLETED","COMPLETED",NA,NA,2021-12-21 02:02:07.683,552,2022-01-29 02:02:07.683,591,2020-10-05 07:39:59.397628,3,"NOT RECOVERED/NOT RESOLVED","Y",NA,"C.1.1.1.3/B.2.2.3.1 aesi","BROAD",NA,NA,"DOSE NOT CHANGED"
"AB12345-BRA-12-id-120","AB12345","cl A.1","llt A.1.1.1.2","dcd A.1.1.1.2","hlt A.1.1.1","hlgt A.1.1","2","cl A","Y","N","trm A.1.1.1.2","MODERATE","BRA","BRA-12","id-120",47.184943481442,"F","ARM A","A: Drug X","ARM A","A: Drug X","ASIAN",2019-04-07 01:42:29.683,2021-04-06 13:42:29.683,731,2021-04-06,"C","S1",4.01101779412978,"HIGH","South America","Y","COMPLETED","COMPLETED",NA,NA,2019-08-26 01:42:29.683,141,2020-02-15 01:42:29.683,314,2019-07-12 10:43:30.640968,1,"RECOVERED/RESOLVED","Y",NA,NA,NA,NA,NA,"DOSE NOT CHANGED"
"AB12345-BRA-12-id-120","AB12345","cl D.2","llt D.2.1.5.3","dcd D.2.1.5.3","hlt D.2.1.5","hlgt D.2.1","1","cl D","N","Y","trm D.2.1.5.3","MILD","BRA","BRA-12","id-120",47.184943481442,"F","ARM A","A: Drug X","ARM A","A: Drug X","ASIAN",2019-04-07 01:42:29.683,2021-04-06 13:42:29.683,731,2021-04-06,"C","S1",4.01101779412978,"HIGH","South America","Y","COMPLETED","COMPLETED",NA,NA,2020-02-05 01:42:29.683,304,2020-09-14 01:42:29.683,526,2019-10-05 17:25:45.700301,2,"RECOVERING/RESOLVING","Y","D.2.1.5.3/A.1.1.1.1 aesi",NA,NA,NA,NA,"DOSE REDUCED"
"AB12345-BRA-12-id-120","AB12345","cl C.1","llt C.1.1.1.3","dcd C.1.1.1.3","hlt C.1.1.1","hlgt C.1.1","4","cl C","N","Y","trm C.1.1.1.3","SEVERE","BRA","BRA-12","id-120",47.184943481442,"F","ARM A","A: Drug X","ARM A","A: Drug X","ASIAN",2019-04-07 01:42:29.683,2021-04-06 13:42:29.683,731,2021-04-06,"C","S1",4.01101779412978,"HIGH","South America","Y","COMPLETED","COMPLETED",NA,NA,2020-10-01 01:42:29.683,543,2021-01-23 01:42:29.683,657,2019-05-23 14:31:00.350556,3,"NOT RECOVERED/NOT RESOLVED","Y",NA,"C.1.1.1.3/B.2.2.3.1 aesi","BROAD",NA,NA,"DRUG WITHDRAWN"
"AB12345-BRA-12-id-42","AB12345","cl D.1","llt D.1.1.1.1","dcd D.1.1.1.1","hlt D.1.1.1","hlgt D.1.1","5","cl D","Y","Y","trm D.1.1.1.1","SEVERE","BRA","BRA-12","id-42",32.413748037961,"M","ARM A","A: Drug X","ARM A","A: Drug X","BLACK OR AFRICAN AMERICAN",2020-08-03 19:47:31.683,2022-08-04 07:47:31.683,731,2022-08-04,"C","S2",5.09991389704065,"LOW","South America","Y","COMPLETED","COMPLETED",NA,NA,2020-12-09 19:47:31.683,128,2021-01-17 19:47:31.683,167,2020-09-19 18:28:10.845254,1,"FATAL","Y",NA,NA,NA,NA,NA,"NOT EVALUABLE"
"AB12345-BRA-12-id-42","AB12345","cl B.1","llt B.1.1.1.1","dcd B.1.1.1.1","hlt B.1.1.1","hlgt B.1.1","5","cl B","Y","Y","trm B.1.1.1.1","SEVERE","BRA","BRA-12","id-42",32.413748037961,"M","ARM A","A: Drug X","ARM A","A: Drug X","BLACK OR AFRICAN AMERICAN",2020-08-03 19:47:31.683,2022-08-04 07:47:31.683,731,2022-08-04,"C","S2",5.09991389704065,"LOW","South America","Y","COMPLETED","COMPLETED",NA,NA,2022-02-13 19:47:31.683,559,2022-05-20 19:47:31.683,655,2021-02-01 00:33:29.76865,2,"FATAL","Y",NA,NA,NA,NA,NA,"NOT EVALUABLE"
"AB12345-BRA-13-id-36","AB12345","cl A.1","llt A.1.1.1.2","dcd A.1.1.1.2","hlt A.1.1.1","hlgt A.1.1","2","cl A","Y","N","trm A.1.1.1.2","MODERATE","BRA","BRA-13","id-36",29.1311445467673,"M","ARM C","C: Combination","ARM C","C: Combination","ASIAN",2020-10-18 16:58:33.683,2022-10-19 04:58:33.683,731,2022-10-19,"B","S1",10.704418844142,"HIGH","South America","Y","COMPLETED","COMPLETED",NA,NA,2021-02-07 16:58:33.683,112,2022-06-08 16:58:33.683,598,2020-12-26 11:05:37.516227,1,"RECOVERING/RESOLVING","Y",NA,NA,NA,NA,NA,"DRUG INTERRUPTED"
"AB12345-BRA-13-id-36","AB12345","cl C.2","llt C.2.1.2.1","dcd C.2.1.2.1","hlt C.2.1.2","hlgt C.2.1","2","cl C","N","Y","trm C.2.1.2.1","MODERATE","BRA","BRA-13","id-36",29.1311445467673,"M","ARM C","C: Combination","ARM C","C: Combination","ASIAN",2020-10-18 16:58:33.683,2022-10-19 04:58:33.683,731,2022-10-19,"B","S1",10.704418844142,"HIGH","South America","Y","COMPLETED","COMPLETED",NA,NA,2021-02-08 16:58:33.683,113,2022-05-05 16:58:33.683,564,2020-12-23 04:26:07.260546,2,"RECOVERED/RESOLVED WITH SEQUELAE","Y",NA,NA,NA,NA,NA,"UNKNOWN"
"AB12345-BRA-13-id-36","AB12345","cl A.1","llt A.1.1.1.1","dcd A.1.1.1.1","hlt A.1.1.1","hlgt A.1.1","1","cl A","N","N","trm A.1.1.1.1","MILD","BRA","BRA-13","id-36",29.1311445467673,"M","ARM C","C: Combination","ARM C","C: Combination","ASIAN",2020-10-18 16:58:33.683,2022-10-19 04:58:33.683,731,2022-10-19,"B","S1",10.704418844142,"HIGH","South America","Y","COMPLETED","COMPLETED",NA,NA,2022-03-11 16:58:33.683,509,2022-03-15 16:58:33.683,513,2021-11-22 14:14:08.97678,3,"NOT RECOVERED/NOT RESOLVED","Y","D.2.1.5.3/A.1.1.1.1 aesi",NA,NA,NA,NA,"NOT APPLICABLE"
"AB12345-BRA-17-id-50","AB12345","cl B.2","llt B.2.2.3.1","dcd B.2.2.3.1","hlt B.2.2.3","hlgt B.2.2","1","cl B","Y","N","trm B.2.2.3.1","MILD","BRA","BRA-17","id-50",48.2775597736483,"M","ARM C","C: Combination","ARM C","C: Combination","WHITE",2020-07-10 23:20:07.683,2022-07-11 11:20:07.683,731,2022-07-11,"A","S2",5.50457525459023,"LOW","South America","Y","COMPLETED","COMPLETED",NA,NA,2021-09-12 23:20:07.683,429,2022-07-11 23:20:07.683,731,2020-10-28 19:25:23.263579,1,"RECOVERING/RESOLVING","Y",NA,"C.1.1.1.3/B.2.2.3.1 aesi","BROAD",NA,NA,"DOSE INCREASED"
"AB12345-BRA-17-id-50","AB12345","cl D.1","llt D.1.1.4.2","dcd D.1.1.4.2","hlt D.1.1.4","hlgt D.1.1","3","cl D","N","N","trm D.1.1.4.2","MODERATE","BRA","BRA-17","id-50",48.2775597736483,"M","ARM C","C: Combination","ARM C","C: Combination","WHITE",2020-07-10 23:20:07.683,2022-07-11 11:20:07.683,731,2022-07-11,"A","S2",5.50457525459023,"LOW","South America","Y","COMPLETED","COMPLETED",NA,NA,2021-12-09 23:20:07.683,517,2022-01-03 23:20:07.683,542,2021-07-29 12:18:37.482611,2,"RECOVERING/RESOLVING","Y",NA,NA,NA,NA,NA,"DRUG WITHDRAWN"
"AB12345-BRA-17-id-50","AB12345","cl A.1","llt A.1.1.1.1","dcd A.1.1.1.1","hlt A.1.1.1","hlgt A.1.1","1","cl A","N","N","trm A.1.1.1.1","MILD","BRA","BRA-17","id-50",48.2775597736483,"M","ARM C","C: Combination","ARM C","C: Combination","WHITE",2020-07-10 23:20:07.683,2022-07-11 11:20:07.683,731,2022-07-11,"A","S2",5.50457525459023,"LOW","South America","Y","COMPLETED","COMPLETED",NA,NA,2022-06-30 23:20:07.683,720,2022-07-08 23:20:07.683,728,2022-05-30 03:23:55.02253,3,"RECOVERING/RESOLVING","Y","D.2.1.5.3/A.1.1.1.1 aesi",NA,NA,NA,NA,"DOSE NOT CHANGED"
"AB12345-BRA-19-id-141","AB12345","cl B.1","llt B.1.1.1.1","dcd B.1.1.1.1","hlt B.1.1.1","hlgt B.1.1","5","cl B","Y","Y","trm B.1.1.1.1","SEVERE","BRA","BRA-19","id-141",37.1705195930782,"F","ARM C","C: Combination","ARM C","C: Combination","ASIAN",2020-01-25 11:24:31.683,2022-01-24 23:24:31.683,731,2022-01-24,"A","S2",3.80941439103664,"MEDIUM","South America","Y","COMPLETED","COMPLETED",NA,NA,2020-06-16 11:24:31.683,143,2020-11-25 11:24:31.683,305,2020-04-09 09:30:18.164913,1,"FATAL","Y",NA,NA,NA,NA,NA,"NOT EVALUABLE"
"AB12345-BRA-19-id-141","AB12345","cl A.1","llt A.1.1.1.2","dcd A.1.1.1.2","hlt A.1.1.1","hlgt A.1.1","2","cl A","Y","N","trm A.1.1.1.2","MODERATE","BRA","BRA-19","id-141",37.1705195930782,"F","ARM C","C: Combination","ARM C","C: Combination","ASIAN",2020-01-25 11:24:31.683,2022-01-24 23:24:31.683,731,2022-01-24,"A","S2",3.80941439103664,"MEDIUM","South America","Y","COMPLETED","COMPLETED",NA,NA,2021-03-15 11:24:31.683,415,2021-09-28 11:24:31.683,612,2021-01-16 14:28:41.213552,2,"NOT RECOVERED/NOT RESOLVED","Y",NA,NA,NA,NA,NA,"UNKNOWN"
"AB12345-BRA-3-id-13","AB12345","cl C.1","llt C.1.1.1.3","dcd C.1.1.1.3","hlt C.1.1.1","hlgt C.1.1","4","cl C","N","Y","trm C.1.1.1.3","SEVERE","BRA","BRA-3","id-13",28.6269269922366,"M","ARM B","B: Placebo","ARM B","B: Placebo","ASIAN",2019-07-27 23:49:47.683,2021-07-27 11:49:47.683,731,2021-07-27,"C","S1",5.55443865282773,"MEDIUM","South America","Y","COMPLETED","COMPLETED",NA,NA,2020-06-20 23:49:47.683,329,2020-12-08 23:49:47.683,500,2020-04-26 21:41:17.518202,1,"RECOVERED/RESOLVED WITH SEQUELAE","Y",NA,"C.1.1.1.3/B.2.2.3.1 aesi","BROAD",NA,NA,"DOSE NOT CHANGED"
"AB12345-BRA-3-id-13","AB12345","cl A.1","llt A.1.1.1.2","dcd A.1.1.1.2","hlt A.1.1.1","hlgt A.1.1","2","cl A","Y","N","trm A.1.1.1.2","MODERATE","BRA","BRA-3","id-13",28.6269269922366,"M","ARM B","B: Placebo","ARM B","B: Placebo","ASIAN",2019-07-27 23:49:47.683,2021-07-27 11:49:47.683,731,2021-07-27,"C","S1",5.55443865282773,"MEDIUM","South America","Y","COMPLETED","COMPLETED",NA,NA,2020-12-01 23:49:47.683,493,2021-06-13 23:49:47.683,687,2019-11-22 21:34:10.166064,2,"RECOVERED/RESOLVED WITH SEQUELAE","Y",NA,NA,NA,NA,NA,"DOSE REDUCED"
"AB12345-BRA-3-id-13","AB12345","cl A.1","llt A.1.1.1.2","dcd A.1.1.1.2","hlt A.1.1.1","hlgt A.1.1","2","cl A","Y","N","trm A.1.1.1.2","MODERATE","BRA","BRA-3","id-13",28.6269269922366,"M","ARM B","B: Placebo","ARM B","B: Placebo","ASIAN",2019-07-27 23:49:47.683,2021-07-27 11:49:47.683,731,2021-07-27,"C","S1",5.55443865282773,"MEDIUM","South America","Y","COMPLETED","COMPLETED",NA,NA,2021-04-13 23:49:47.683,626,2021-06-30 23:49:47.683,704,2021-01-17 05:57:41.733215,3,"RECOVERING/RESOLVING","Y",NA,NA,NA,NA,NA,"DOSE NOT CHANGED"
"AB12345-BRA-3-id-13","AB12345","cl A.1","llt A.1.1.1.1","dcd A.1.1.1.1","hlt A.1.1.1","hlgt A.1.1","1","cl A","N","N","trm A.1.1.1.1","MILD","BRA","BRA-3","id-13",28.6269269922366,"M","ARM B","B: Placebo","ARM B","B: Placebo","ASIAN",2019-07-27 23:49:47.683,2021-07-27 11:49:47.683,731,2021-07-27,"C","S1",5.55443865282773,"MEDIUM","South America","Y","COMPLETED","COMPLETED",NA,NA,2021-05-12 23:49:47.683,655,2021-06-14 23:49:47.683,688,2019-11-28 01:43:48.299728,4,"RECOVERING/RESOLVING","Y","D.2.1.5.3/A.1.1.1.1 aesi",NA,NA,NA,NA,"DOSE NOT CHANGED"
"AB12345-BRA-3-id-13","AB12345","cl C.1","llt C.1.1.1.3","dcd C.1.1.1.3","hlt C.1.1.1","hlgt C.1.1","4","cl C","N","Y","trm C.1.1.1.3","SEVERE","BRA","BRA-3","id-13",28.6269269922366,"M","ARM B","B: Placebo","ARM B","B: Placebo","ASIAN",2019-07-27 23:49:47.683,2021-07-27 11:49:47.683,731,2021-07-27,"C","S1",5.55443865282773,"MEDIUM","South America","Y","COMPLETED","COMPLETED",NA,NA,2021-05-30 23:49:47.683,673,2021-06-23 23:49:47.683,697,2020-03-28 05:35:41.867109,5,"RECOVERING/RESOLVING","Y",NA,"C.1.1.1.3/B.2.2.3.1 aesi","BROAD",NA,NA,"DOSE NOT CHANGED"
"AB12345-BRA-8-id-93","AB12345","cl B.1","llt B.1.1.1.1","dcd B.1.1.1.1","hlt B.1.1.1","hlgt B.1.1","5","cl B","Y","Y","trm B.1.1.1.1","SEVERE","BRA","BRA-8","id-93",35.429847547693,"M","ARM B","B: Placebo","ARM B","B: Placebo","ASIAN",2020-03-27 00:17:36.683,2022-03-27 12:17:36.683,731,2022-03-27,"A","S1",4.4981364019293,"MEDIUM","South America","Y","COMPLETED","COMPLETED",NA,NA,2020-12-20 00:17:36.683,268,2021-04-26 00:17:36.683,395,2020-07-22 16:35:24.159836,1,"FATAL","Y",NA,NA,NA,NA,NA,"NOT EVALUABLE"
"AB12345-BRA-8-id-93","AB12345","cl C.2","llt C.2.1.2.1","dcd C.2.1.2.1","hlt C.2.1.2","hlgt C.2.1","2","cl C","N","Y","trm C.2.1.2.1","MODERATE","BRA","BRA-8","id-93",35.429847547693,"M","ARM B","B: Placebo","ARM B","B: Placebo","ASIAN",2020-03-27 00:17:36.683,2022-03-27 12:17:36.683,731,2022-03-27,"A","S1",4.4981364019293,"MEDIUM","South America","Y","COMPLETED","COMPLETED",NA,NA,2021-07-08 00:17:36.683,468,2021-10-19 00:17:36.683,571,2020-10-29 18:49:44.815933,2,"NOT RECOVERED/NOT RESOLVED","Y",NA,NA,NA,NA,NA,"DOSE NOT CHANGED"
"AB12345-BRA-8-id-93","AB12345","cl B.2","llt B.2.1.2.1","dcd B.2.1.2.1","hlt B.2.1.2","hlgt B.2.1","3","cl B","N","N","trm B.2.1.2.1","MODERATE","BRA","BRA-8","id-93",35.429847547693,"M","ARM B","B: Placebo","ARM B","B: Placebo","ASIAN",2020-03-27 00:17:36.683,2022-03-27 12:17:36.683,731,2022-03-27,"A","S1",4.4981364019293,"MEDIUM","South America","Y","COMPLETED","COMPLETED",NA,NA,2021-12-21 00:17:36.683,634,2022-02-26 00:17:36.683,701,2021-04-29 20:40:27.58807,3,"NOT RECOVERED/NOT RESOLVED","Y",NA,NA,NA,NA,NA,"DOSE NOT CHANGED"
"AB12345-CAN-12-id-139","AB12345","cl D.1","llt D.1.1.1.1","dcd D.1.1.1.1","hlt D.1.1.1","hlgt D.1.1","5","cl D","Y","Y","trm D.1.1.1.1","SEVERE","CAN","CAN-12","id-139",26.9192382195154,"F","ARM B","B: Placebo","ARM B","B: Placebo","WHITE",2020-08-06 11:13:24.683,2022-08-06 23:13:24.683,731,2022-08-06,"C","S2",8.03101028317251,"HIGH","North America","Y","COMPLETED","COMPLETED",NA,NA,2021-11-30 11:13:24.683,481,2022-06-09 11:13:24.683,672,2021-07-16 14:25:19.345006,1,"FATAL","Y",NA,NA,NA,NA,NA,"NOT EVALUABLE"
"AB12345-CAN-14-id-121","AB12345","cl B.2","llt B.2.2.3.1","dcd B.2.2.3.1","hlt B.2.2.3","hlgt B.2.2","1","cl B","Y","N","trm B.2.2.3.1","MILD","CAN","CAN-14","id-121",36.9904812578022,"M","ARM C","C: Combination","ARM C","C: Combination","BLACK OR AFRICAN AMERICAN",2020-04-06 01:03:13.683,2022-04-06 13:03:13.683,731,2022-04-06,"B","S1",4.1557051271061,"LOW","North America","Y","COMPLETED","COMPLETED",NA,NA,2021-03-19 01:03:13.683,347,2021-05-23 01:03:13.683,412,2020-10-13 16:05:39.102207,1,"RECOVERED/RESOLVED","Y",NA,"C.1.1.1.3/B.2.2.3.1 aesi","BROAD",NA,NA,"DOSE NOT CHANGED"
"AB12345-CAN-14-id-121","AB12345","cl C.2","llt C.2.1.2.1","dcd C.2.1.2.1","hlt C.2.1.2","hlgt C.2.1","2","cl C","N","Y","trm C.2.1.2.1","MODERATE","CAN","CAN-14","id-121",36.9904812578022,"M","ARM C","C: Combination","ARM C","C: Combination","BLACK OR AFRICAN AMERICAN",2020-04-06 01:03:13.683,2022-04-06 13:03:13.683,731,2022-04-06,"B","S1",4.1557051271061,"LOW","North America","Y","COMPLETED","COMPLETED",NA,NA,2021-11-22 01:03:13.683,595,2021-11-25 01:03:13.683,598,2021-04-10 01:52:24.563414,2,"NOT RECOVERED/NOT RESOLVED","Y",NA,NA,NA,NA,NA,"DOSE NOT CHANGED"
"AB12345-CAN-14-id-121","AB12345","cl C.1","llt C.1.1.1.3","dcd C.1.1.1.3","hlt C.1.1.1","hlgt C.1.1","4","cl C","N","Y","trm C.1.1.1.3","SEVERE","CAN","CAN-14","id-121",36.9904812578022,"M","ARM C","C: Combination","ARM C","C: Combination","BLACK OR AFRICAN AMERICAN",2020-04-06 01:03:13.683,2022-04-06 13:03:13.683,731,2022-04-06,"B","S1",4.1557051271061,"LOW","North America","Y","COMPLETED","COMPLETED",NA,NA,2021-12-27 01:03:13.683,630,2022-03-28 01:03:13.683,721,2020-10-09 16:08:41.470882,3,"RECOVERING/RESOLVING","Y",NA,"C.1.1.1.3/B.2.2.3.1 aesi","BROAD",NA,NA,"DOSE RATE REDUCED"
"AB12345-CAN-17-id-18","AB12345","cl A.1","llt A.1.1.1.1","dcd A.1.1.1.1","hlt A.1.1.1","hlgt A.1.1","1","cl A","N","N","trm A.1.1.1.1","MILD","CAN","CAN-17","id-18",23.9245338146139,"M","ARM C","C: Combination","ARM C","C: Combination","ASIAN",2021-01-31 09:56:15.683,2023-01-31 21:56:15.683,731,2023-01-31,"C","S2",3.72193324469508,"MEDIUM","North America","Y","COMPLETED","COMPLETED",NA,NA,2021-09-20 09:56:15.683,232,2022-08-28 09:56:15.683,574,2021-02-04 14:40:31.481537,1,"NOT RECOVERED/NOT RESOLVED","Y","D.2.1.5.3/A.1.1.1.1 aesi",NA,NA,NA,NA,"DOSE NOT CHANGED"
"AB12345-CAN-17-id-18","AB12345","cl B.1","llt B.1.1.1.1","dcd B.1.1.1.1","hlt B.1.1.1","hlgt B.1.1","5","cl B","Y","Y","trm B.1.1.1.1","SEVERE","CAN","CAN-17","id-18",23.9245338146139,"M","ARM C","C: Combination","ARM C","C: Combination","ASIAN",2021-01-31 09:56:15.683,2023-01-31 21:56:15.683,731,2023-01-31,"C","S2",3.72193324469508,"MEDIUM","North America","Y","COMPLETED","COMPLETED",NA,NA,2021-11-26 09:56:15.683,299,2022-02-28 09:56:15.683,393,2021-03-28 03:04:15.472968,2,"FATAL","Y",NA,NA,NA,NA,NA,"NOT EVALUABLE"
"AB12345-CAN-17-id-18","AB12345","cl C.2","llt C.2.1.2.1","dcd C.2.1.2.1","hlt C.2.1.2","hlgt C.2.1","2","cl C","N","Y","trm C.2.1.2.1","MODERATE","CAN","CAN-17","id-18",23.9245338146139,"M","ARM C","C: Combination","ARM C","C: Combination","ASIAN",2021-01-31 09:56:15.683,2023-01-31 21:56:15.683,731,2023-01-31,"C","S2",3.72193324469508,"MEDIUM","North America","Y","COMPLETED","COMPLETED",NA,NA,2022-02-28 09:56:15.683,393,2022-09-30 09:56:15.683,607,2021-06-14 10:02:14.605032,3,"RECOVERED/RESOLVED","Y",NA,NA,NA,NA,NA,"DOSE RATE REDUCED"
"AB12345-CAN-17-id-18","AB12345","cl D.1","llt D.1.1.4.2","dcd D.1.1.4.2","hlt D.1.1.4","hlgt D.1.1","3","cl D","N","N","trm D.1.1.4.2","MODERATE","CAN","CAN-17","id-18",23.9245338146139,"M","ARM C","C: Combination","ARM C","C: Combination","ASIAN",2021-01-31 09:56:15.683,2023-01-31 21:56:15.683,731,2023-01-31,"C","S2",3.72193324469508,"MEDIUM","North America","Y","COMPLETED","COMPLETED",NA,NA,2022-08-16 09:56:15.683,562,2022-10-16 09:56:15.683,623,2021-05-21 21:00:01.246505,4,"RECOVERED/RESOLVED","Y",NA,NA,NA,NA,NA,"DOSE NOT CHANGED"
"AB12345-CAN-17-id-18","AB12345","cl C.2","llt C.2.1.2.1","dcd C.2.1.2.1","hlt C.2.1.2","hlgt C.2.1","2","cl C","N","Y","trm C.2.1.2.1","MODERATE","CAN","CAN-17","id-18",23.9245338146139,"M","ARM C","C: Combination","ARM C","C: Combination","ASIAN",2021-01-31 09:56:15.683,2023-01-31 21:56:15.683,731,2023-01-31,"C","S2",3.72193324469508,"MEDIUM","North America","Y","COMPLETED","COMPLETED",NA,NA,2022-08-21 09:56:15.683,567,2022-11-08 09:56:15.683,646,2021-07-11 05:53:30.079345,5,"RECOVERED/RESOLVED","Y",NA,NA,NA,NA,NA,"DOSE NOT CHANGED"
"AB12345-CHN-1-id-115","AB12345","cl A.1","llt A.1.1.1.2","dcd A.1.1.1.2","hlt A.1.1.1","hlgt A.1.1","2","cl A","Y","N","trm A.1.1.1.2","MODERATE","CHN","CHN-1","id-115",48.046442969697,"M","ARM A","A: Drug X","ARM A","A: Drug X","ASIAN",2019-08-28 16:23:06.683,2021-08-28 04:23:06.683,731,2021-08-28,"B","S1",3.38308054893093,"LOW","Asia","Y","COMPLETED","COMPLETED",NA,NA,2021-05-29 16:23:06.683,640,2021-08-16 16:23:06.683,719,2021-02-01 23:13:16.407331,1,"RECOVERED/RESOLVED WITH SEQUELAE","Y",NA,NA,NA,NA,NA,"DRUG WITHDRAWN"
"AB12345-CHN-1-id-116","AB12345","cl D.2","llt D.2.1.5.3","dcd D.2.1.5.3","hlt D.2.1.5","hlgt D.2.1","1","cl D","N","Y","trm D.2.1.5.3","MILD","CHN","CHN-1","id-116",26.8547371986504,"M","ARM A","A: Drug X","ARM A","A: Drug X","ASIAN",2019-05-08 12:05:19.683,2021-05-08 00:05:19.683,731,2021-05-08,"A","S2",12.0703789912852,"LOW","Asia","Y","COMPLETED","COMPLETED",NA,NA,2019-11-29 12:05:19.683,205,2021-02-12 12:05:19.683,646,2019-09-06 22:23:11.298236,1,"RECOVERED/RESOLVED","Y","D.2.1.5.3/A.1.1.1.1 aesi",NA,NA,NA,NA,"DOSE NOT CHANGED"
"AB12345-CHN-1-id-116","AB12345","cl C.2","llt C.2.1.2.1","dcd C.2.1.2.1","hlt C.2.1.2","hlgt C.2.1","2","cl C","N","Y","trm C.2.1.2.1","MODERATE","CHN","CHN-1","id-116",26.8547371986504,"M","ARM A","A: Drug X","ARM A","A: Drug X","ASIAN",2019-05-08 12:05:19.683,2021-05-08 00:05:19.683,731,2021-05-08,"A","S2",12.0703789912852,"LOW","Asia","Y","COMPLETED","COMPLETED",NA,NA,2020-04-21 12:05:19.683,349,2020-08-19 12:05:19.683,469,2020-03-21 03:34:03.451844,2,"RECOVERING/RESOLVING","Y",NA,NA,NA,NA,NA,"DOSE NOT CHANGED"
"AB12345-CHN-1-id-116","AB12345","cl A.1","llt A.1.1.1.2","dcd A.1.1.1.2","hlt A.1.1.1","hlgt A.1.1","2","cl A","Y","N","trm A.1.1.1.2","MODERATE","CHN","CHN-1","id-116",26.8547371986504,"M","ARM A","A: Drug X","ARM A","A: Drug X","ASIAN",2019-05-08 12:05:19.683,2021-05-08 00:05:19.683,731,2021-05-08,"A","S2",12.0703789912852,"LOW","Asia","Y","COMPLETED","COMPLETED",NA,NA,2020-05-09 12:05:19.683,367,2020-09-10 12:05:19.683,491,2019-12-17 20:27:53.981361,3,"RECOVERING/RESOLVING","Y",NA,NA,NA,NA,NA,"DRUG WITHDRAWN"
"AB12345-CHN-1-id-116","AB12345","cl D.1","llt D.1.1.1.1","dcd D.1.1.1.1","hlt D.1.1.1","hlgt D.1.1","5","cl D","Y","Y","trm D.1.1.1.1","SEVERE","CHN","CHN-1","id-116",26.8547371986504,"M","ARM A","A: Drug X","ARM A","A: Drug X","ASIAN",2019-05-08 12:05:19.683,2021-05-08 00:05:19.683,731,2021-05-08,"A","S2",12.0703789912852,"LOW","Asia","Y","COMPLETED","COMPLETED",NA,NA,2020-07-24 12:05:19.683,443,2021-01-24 12:05:19.683,627,2019-05-09 15:35:48.351496,4,"FATAL","Y",NA,NA,NA,NA,NA,"NOT EVALUABLE"
"AB12345-CHN-1-id-116","AB12345","cl C.2","llt C.2.1.2.1","dcd C.2.1.2.1","hlt C.2.1.2","hlgt C.2.1","2","cl C","N","Y","trm C.2.1.2.1","MODERATE","CHN","CHN-1","id-116",26.8547371986504,"M","ARM A","A: Drug X","ARM A","A: Drug X","ASIAN",2019-05-08 12:05:19.683,2021-05-08 00:05:19.683,731,2021-05-08,"A","S2",12.0703789912852,"LOW","Asia","Y","COMPLETED","COMPLETED",NA,NA,2021-05-01 12:05:19.683,724,2021-05-07 12:05:19.683,730,2020-02-25 17:37:09.322746,5,"RECOVERED/RESOLVED WITH SEQUELAE","Y",NA,NA,NA,NA,NA,"UNKNOWN"
"AB12345-CHN-1-id-118","AB12345","cl A.1","llt A.1.1.1.1","dcd A.1.1.1.1","hlt A.1.1.1","hlgt A.1.1","1","cl A","N","N","trm A.1.1.1.1","MILD","CHN","CHN-1","id-118",25.098567366957,"F","ARM A","A: Drug X","ARM A","A: Drug X","ASIAN",2021-01-04 15:16:11.683,2023-01-05 03:16:11.683,731,2023-01-05,"B","S2",10.7801034426019,"MEDIUM","Asia","Y","COMPLETED","COMPLETED",NA,NA,2021-08-10 15:16:11.683,218,2022-01-06 15:16:11.683,367,2021-04-13 14:56:47.95453,1,"UNKNOWN","Y","D.2.1.5.3/A.1.1.1.1 aesi",NA,NA,NA,NA,"DOSE RATE REDUCED"
"AB12345-CHN-1-id-118","AB12345","cl C.1","llt C.1.1.1.3","dcd C.1.1.1.3","hlt C.1.1.1","hlgt C.1.1","4","cl C","N","Y","trm C.1.1.1.3","SEVERE","CHN","CHN-1","id-118",25.098567366957,"F","ARM A","A: Drug X","ARM A","A: Drug X","ASIAN",2021-01-04 15:16:11.683,2023-01-05 03:16:11.683,731,2023-01-05,"B","S2",10.7801034426019,"MEDIUM","Asia","Y","COMPLETED","COMPLETED",NA,NA,2022-03-21 15:16:11.683,441,2022-09-30 15:16:11.683,634,2021-04-27 03:11:04.559802,2,"RECOVERED/RESOLVED WITH SEQUELAE","Y",NA,"C.1.1.1.3/B.2.2.3.1 aesi","BROAD",NA,NA,"DOSE NOT CHANGED"
"AB12345-CHN-1-id-118","AB12345","cl B.1","llt B.1.1.1.1","dcd B.1.1.1.1","hlt B.1.1.1","hlgt B.1.1","5","cl B","Y","Y","trm B.1.1.1.1","SEVERE","CHN","CHN-1","id-118",25.098567366957,"F","ARM A","A: Drug X","ARM A","A: Drug X","ASIAN",2021-01-04 15:16:11.683,2023-01-05 03:16:11.683,731,2023-01-05,"B","S2",10.7801034426019,"MEDIUM","Asia","Y","COMPLETED","COMPLETED",NA,NA,2022-07-24 15:16:11.683,566,2022-09-23 15:16:11.683,627,2021-03-25 07:30:50.359492,3,"FATAL","Y",NA,NA,NA,NA,NA,"NOT EVALUABLE"
"AB12345-CHN-1-id-118","AB12345","cl C.1","llt C.1.1.1.3","dcd C.1.1.1.3","hlt C.1.1.1","hlgt C.1.1","4","cl C","N","Y","trm C.1.1.1.3","SEVERE","CHN","CHN-1","id-118",25.098567366957,"F","ARM A","A: Drug X","ARM A","A: Drug X","ASIAN",2021-01-04 15:16:11.683,2023-01-05 03:16:11.683,731,2023-01-05,"B","S2",10.7801034426019,"MEDIUM","Asia","Y","COMPLETED","COMPLETED",NA,NA,2022-08-16 15:16:11.683,589,2022-08-22 15:16:11.683,595,2021-11-07 22:20:14.607841,4,"NOT RECOVERED/NOT RESOLVED","Y",NA,"C.1.1.1.3/B.2.2.3.1 aesi","BROAD",NA,NA,"DOSE NOT CHANGED"
"AB12345-CHN-1-id-118","AB12345","cl D.2","llt D.2.1.5.3","dcd D.2.1.5.3","hlt D.2.1.5","hlgt D.2.1","1","cl D","N","Y","trm D.2.1.5.3","MILD","CHN","CHN-1","id-118",25.098567366957,"F","ARM A","A: Drug X","ARM A","A: Drug X","ASIAN",2021-01-04 15:16:11.683,2023-01-05 03:16:11.683,731,2023-01-05,"B","S2",10.7801034426019,"MEDIUM","Asia","Y","COMPLETED","COMPLETED",NA,NA,2022-11-15 15:16:11.683,680,2022-12-18 15:16:11.683,713,2021-12-27 19:25:19.599669,5,"RECOVERING/RESOLVING","Y","D.2.1.5.3/A.1.1.1.1 aesi",NA,NA,NA,NA,"DOSE NOT CHANGED"
"AB12345-CHN-1-id-122","AB12345","cl B.2","llt B.2.1.2.1","dcd B.2.1.2.1","hlt B.2.1.2","hlgt B.2.1","3","cl B","N","N","trm B.2.1.2.1","MODERATE","CHN","CHN-1","id-122",37.4408816691079,"F","ARM C","C: Combination","ARM C","C: Combination","ASIAN",2019-08-21 11:36:57.683,2021-08-20 23:36:57.683,731,2021-08-20,"C","S2",8.22579272105484,"LOW","Asia","Y","COMPLETED","COMPLETED",NA,NA,2020-03-27 11:36:57.683,219,2020-12-17 11:36:57.683,484,2019-10-22 18:56:47.637285,1,"NOT RECOVERED/NOT RESOLVED","Y",NA,NA,NA,NA,NA,"DOSE NOT CHANGED"
"AB12345-CHN-1-id-122","AB12345","cl B.1","llt B.1.1.1.1","dcd B.1.1.1.1","hlt B.1.1.1","hlgt B.1.1","5","cl B","Y","Y","trm B.1.1.1.1","SEVERE","CHN","CHN-1","id-122",37.4408816691079,"F","ARM C","C: Combination","ARM C","C: Combination","ASIAN",2019-08-21 11:36:57.683,2021-08-20 23:36:57.683,731,2021-08-20,"C","S2",8.22579272105484,"LOW","Asia","Y","COMPLETED","COMPLETED",NA,NA,2021-08-19 11:36:57.683,729,2021-08-19 11:36:57.683,729,2020-11-02 07:54:23.158554,2,"FATAL","Y",NA,NA,NA,NA,NA,"NOT EVALUABLE"
"AB12345-CHN-1-id-123","AB12345","cl A.1","llt A.1.1.1.2","dcd A.1.1.1.2","hlt A.1.1.1","hlgt A.1.1","2","cl A","Y","N","trm A.1.1.1.2","MODERATE","CHN","CHN-1","id-123",32.3376273177261,"M","ARM B","B: Placebo","ARM B","B: Placebo","ASIAN",2020-04-22 13:03:49.683,2022-04-23 01:03:49.683,731,2022-04-23,"B","S2",2.98449762106062,"MEDIUM","Asia","Y","COMPLETED","COMPLETED",NA,NA,2021-02-08 13:03:49.683,292,2021-02-19 13:03:49.683,303,2021-02-05 21:21:50.562486,1,"RECOVERING/RESOLVING","Y",NA,NA,NA,NA,NA,"DOSE NOT CHANGED"
"AB12345-CHN-1-id-123","AB12345","cl D.2","llt D.2.1.5.3","dcd D.2.1.5.3","hlt D.2.1.5","hlgt D.2.1","1","cl D","N","Y","trm D.2.1.5.3","MILD","CHN","CHN-1","id-123",32.3376273177261,"M","ARM B","B: Placebo","ARM B","B: Placebo","ASIAN",2020-04-22 13:03:49.683,2022-04-23 01:03:49.683,731,2022-04-23,"B","S2",2.98449762106062,"MEDIUM","Asia","Y","COMPLETED","COMPLETED",NA,NA,2021-04-29 13:03:49.683,372,2021-11-10 13:03:49.683,567,2020-06-23 22:02:25.751128,2,"NOT RECOVERED/NOT RESOLVED","Y","D.2.1.5.3/A.1.1.1.1 aesi",NA,NA,NA,NA,"DOSE NOT CHANGED"
"AB12345-CHN-1-id-123","AB12345","cl B.1","llt B.1.1.1.1","dcd B.1.1.1.1","hlt B.1.1.1","hlgt B.1.1","5","cl B","Y","Y","trm B.1.1.1.1","SEVERE","CHN","CHN-1","id-123",32.3376273177261,"M","ARM B","B: Placebo","ARM B","B: Placebo","ASIAN",2020-04-22 13:03:49.683,2022-04-23 01:03:49.683,731,2022-04-23,"B","S2",2.98449762106062,"MEDIUM","Asia","Y","COMPLETED","COMPLETED",NA,NA,2021-06-09 13:03:49.683,413,2021-08-15 13:03:49.683,480,2021-05-06 10:12:18.42661,3,"FATAL","Y",NA,NA,NA,NA,NA,"NOT EVALUABLE"
"AB12345-CHN-1-id-129","AB12345","cl B.2","llt B.2.2.3.1","dcd B.2.2.3.1","hlt B.2.2.3","hlgt B.2.2","1","cl B","Y","N","trm B.2.2.3.1","MILD","CHN","CHN-1","id-129",26.662176300814,"F","ARM A","A: Drug X","ARM A","A: Drug X","MULTIPLE",2021-01-19 18:54:16.683,2023-01-20 06:54:16.683,731,2023-01-20,"A","S2",4.15748000604081,"LOW","Asia","Y","COMPLETED","COMPLETED",NA,NA,2022-03-04 18:54:16.683,409,2022-09-04 18:54:16.683,593,2021-06-30 08:44:50.180413,1,"RECOVERED/RESOLVED","Y",NA,"C.1.1.1.3/B.2.2.3.1 aesi","BROAD",NA,NA,"DOSE NOT CHANGED"
"AB12345-CHN-1-id-129","AB12345","cl B.2","llt B.2.2.3.1","dcd B.2.2.3.1","hlt B.2.2.3","hlgt B.2.2","1","cl B","Y","N","trm B.2.2.3.1","MILD","CHN","CHN-1","id-129",26.662176300814,"F","ARM A","A: Drug X","ARM A","A: Drug X","MULTIPLE",2021-01-19 18:54:16.683,2023-01-20 06:54:16.683,731,2023-01-20,"A","S2",4.15748000604081,"LOW","Asia","Y","COMPLETED","COMPLETED",NA,NA,2022-04-08 18:54:16.683,444,2022-12-17 18:54:16.683,697,2022-01-22 22:03:33.51973,2,"UNKNOWN","Y",NA,"C.1.1.1.3/B.2.2.3.1 aesi","BROAD",NA,NA,"DOSE NOT CHANGED"
"AB12345-CHN-1-id-129","AB12345","cl A.1","llt A.1.1.1.1","dcd A.1.1.1.1","hlt A.1.1.1","hlgt A.1.1","1","cl A","N","N","trm A.1.1.1.1","MILD","CHN","CHN-1","id-129",26.662176300814,"F","ARM A","A: Drug X","ARM A","A: Drug X","MULTIPLE",2021-01-19 18:54:16.683,2023-01-20 06:54:16.683,731,2023-01-20,"A","S2",4.15748000604081,"LOW","Asia","Y","COMPLETED","COMPLETED",NA,NA,2022-08-09 18:54:16.683,567,2022-11-04 18:54:16.683,654,2021-09-26 21:45:39.911693,3,"RECOVERING/RESOLVING","Y","D.2.1.5.3/A.1.1.1.1 aesi",NA,NA,NA,NA,"DOSE RATE REDUCED"
"AB12345-CHN-1-id-132","AB12345","cl C.1","llt C.1.1.1.3","dcd C.1.1.1.3","hlt C.1.1.1","hlgt C.1.1","4","cl C","N","Y","trm C.1.1.1.3","SEVERE","CHN","CHN-1","id-132",39.7536853164387,"F","ARM C","C: Combination","ARM C","C: Combination","BLACK OR AFRICAN AMERICAN",2020-12-20 11:38:32.683,2022-12-20 23:38:32.683,731,2022-12-20,"A","S1",7.80483052865049,"MEDIUM","Asia","Y","COMPLETED","COMPLETED",NA,NA,2021-09-16 11:38:32.683,270,2022-06-03 11:38:32.683,530,2021-07-24 12:52:58.691245,1,"RECOVERED/RESOLVED","Y",NA,"C.1.1.1.3/B.2.2.3.1 aesi","BROAD",NA,NA,"DOSE NOT CHANGED"
"AB12345-CHN-1-id-132","AB12345","cl B.2","llt B.2.2.3.1","dcd B.2.2.3.1","hlt B.2.2.3","hlgt B.2.2","1","cl B","Y","N","trm B.2.2.3.1","MILD","CHN","CHN-1","id-132",39.7536853164387,"F","ARM C","C: Combination","ARM C","C: Combination","BLACK OR AFRICAN AMERICAN",2020-12-20 11:38:32.683,2022-12-20 23:38:32.683,731,2022-12-20,"A","S1",7.80483052865049,"MEDIUM","Asia","Y","COMPLETED","COMPLETED",NA,NA,2021-09-20 11:38:32.683,274,2021-11-02 11:38:32.683,317,2021-07-07 01:11:19.669542,2,"NOT RECOVERED/NOT RESOLVED","Y",NA,"C.1.1.1.3/B.2.2.3.1 aesi","BROAD",NA,NA,"DOSE NOT CHANGED"
"AB12345-CHN-1-id-132","AB12345","cl B.2","llt B.2.2.3.1","dcd B.2.2.3.1","hlt B.2.2.3","hlgt B.2.2","1","cl B","Y","N","trm B.2.2.3.1","MILD","CHN","CHN-1","id-132",39.7536853164387,"F","ARM C","C: Combination","ARM C","C: Combination","BLACK OR AFRICAN AMERICAN",2020-12-20 11:38:32.683,2022-12-20 23:38:32.683,731,2022-12-20,"A","S1",7.80483052865049,"MEDIUM","Asia","Y","COMPLETED","COMPLETED",NA,NA,2021-11-07 11:38:32.683,322,2021-11-07 11:38:32.683,322,2021-09-15 07:09:50.259807,3,"RECOVERING/RESOLVING","Y",NA,"C.1.1.1.3/B.2.2.3.1 aesi","BROAD",NA,NA,"DOSE INCREASED"
"AB12345-CHN-1-id-132","AB12345","cl A.1","llt A.1.1.1.1","dcd A.1.1.1.1","hlt A.1.1.1","hlgt A.1.1","1","cl A","N","N","trm A.1.1.1.1","MILD","CHN","CHN-1","id-132",39.7536853164387,"F","ARM C","C: Combination","ARM C","C: Combination","BLACK OR AFRICAN AMERICAN",2020-12-20 11:38:32.683,2022-12-20 23:38:32.683,731,2022-12-20,"A","S1",7.80483052865049,"MEDIUM","Asia","Y","COMPLETED","COMPLETED",NA,NA,2022-03-23 11:38:32.683,458,2022-10-12 11:38:32.683,661,2021-01-20 23:15:33.491125,4,"RECOVERED/RESOLVED","Y","D.2.1.5.3/A.1.1.1.1 aesi",NA,NA,NA,NA,"DOSE NOT CHANGED"
"AB12345-CHN-1-id-132","AB12345","cl D.1","llt D.1.1.1.1","dcd D.1.1.1.1","hlt D.1.1.1","hlgt D.1.1","5","cl D","Y","Y","trm D.1.1.1.1","SEVERE","CHN","CHN-1","id-132",39.7536853164387,"F","ARM C","C: Combination","ARM C","C: Combination","BLACK OR AFRICAN AMERICAN",2020-12-20 11:38:32.683,2022-12-20 23:38:32.683,731,2022-12-20,"A","S1",7.80483052865049,"MEDIUM","Asia","Y","COMPLETED","COMPLETED",NA,NA,2022-10-08 11:38:32.683,657,2022-12-02 11:38:32.683,712,2021-04-23 05:20:41.822061,5,"FATAL","Y",NA,NA,NA,NA,NA,"NOT EVALUABLE"
"AB12345-CHN-1-id-146","AB12345","cl D.1","llt D.1.1.4.2","dcd D.1.1.4.2","hlt D.1.1.4","hlgt D.1.1","3","cl D","N","N","trm D.1.1.4.2","MODERATE","CHN","CHN-1","id-146",40.8458919975552,"F","ARM A","A: Drug X","ARM A","A: Drug X","ASIAN",2020-06-17 22:31:40.683,2022-06-18 10:31:40.683,731,2022-06-18,"B","S1",5.07739800658216,"HIGH","Asia","Y","COMPLETED","COMPLETED",NA,NA,2020-12-08 22:31:40.683,174,2021-10-15 22:31:40.683,485,2020-11-13 17:27:38.421376,1,"RECOVERED/RESOLVED WITH SEQUELAE","Y",NA,NA,NA,NA,NA,"DOSE NOT CHANGED"
"AB12345-CHN-1-id-146","AB12345","cl C.2","llt C.2.1.2.1","dcd C.2.1.2.1","hlt C.2.1.2","hlgt C.2.1","2","cl C","N","Y","trm C.2.1.2.1","MODERATE","CHN","CHN-1","id-146",40.8458919975552,"F","ARM A","A: Drug X","ARM A","A: Drug X","ASIAN",2020-06-17 22:31:40.683,2022-06-18 10:31:40.683,731,2022-06-18,"B","S1",5.07739800658216,"HIGH","Asia","Y","COMPLETED","COMPLETED",NA,NA,2021-09-18 22:31:40.683,458,2022-03-05 22:31:40.683,626,2020-10-01 07:17:43.010014,2,"RECOVERED/RESOLVED","Y",NA,NA,NA,NA,NA,"DOSE NOT CHANGED"
"AB12345-CHN-1-id-146","AB12345","cl B.2","llt B.2.2.3.1","dcd B.2.2.3.1","hlt B.2.2.3","hlgt B.2.2","1","cl B","Y","N","trm B.2.2.3.1","MILD","CHN","CHN-1","id-146",40.8458919975552,"F","ARM A","A: Drug X","ARM A","A: Drug X","ASIAN",2020-06-17 22:31:40.683,2022-06-18 10:31:40.683,731,2022-06-18,"B","S1",5.07739800658216,"HIGH","Asia","Y","COMPLETED","COMPLETED",NA,NA,2022-03-23 22:31:40.683,644,2022-06-06 22:31:40.683,719,2020-10-31 02:18:37.054045,3,"NOT RECOVERED/NOT RESOLVED","Y",NA,"C.1.1.1.3/B.2.2.3.1 aesi","BROAD",NA,NA,"DOSE NOT CHANGED"
"AB12345-CHN-1-id-146","AB12345","cl B.2","llt B.2.2.3.1","dcd B.2.2.3.1","hlt B.2.2.3","hlgt B.2.2","1","cl B","Y","N","trm B.2.2.3.1","MILD","CHN","CHN-1","id-146",40.8458919975552,"F","ARM A","A: Drug X","ARM A","A: Drug X","ASIAN",2020-06-17 22:31:40.683,2022-06-18 10:31:40.683,731,2022-06-18,"B","S1",5.07739800658216,"HIGH","Asia","Y","COMPLETED","COMPLETED",NA,NA,2022-04-08 22:31:40.683,660,2022-04-10 22:31:40.683,662,2021-04-07 11:53:47.030128,4,"RECOVERED/RESOLVED","Y",NA,"C.1.1.1.3/B.2.2.3.1 aesi","BROAD",NA,NA,"DOSE NOT CHANGED"
"AB12345-CHN-1-id-146","AB12345","cl C.1","llt C.1.1.1.3","dcd C.1.1.1.3","hlt C.1.1.1","hlgt C.1.1","4","cl C","N","Y","trm C.1.1.1.3","SEVERE","CHN","CHN-1","id-146",40.8458919975552,"F","ARM A","A: Drug X","ARM A","A: Drug X","ASIAN",2020-06-17 22:31:40.683,2022-06-18 10:31:40.683,731,2022-06-18,"B","S1",5.07739800658216,"HIGH","Asia","Y","COMPLETED","COMPLETED",NA,NA,2022-05-31 22:31:40.683,713,2022-06-15 22:31:40.683,728,2021-10-11 01:55:38.118293,5,"NOT RECOVERED/NOT RESOLVED","Y",NA,"C.1.1.1.3/B.2.2.3.1 aesi","BROAD",NA,NA,"DOSE NOT CHANGED"
"AB12345-CHN-1-id-147","AB12345","cl A.1","llt A.1.1.1.1","dcd A.1.1.1.1","hlt A.1.1.1","hlgt A.1.1","1","cl A","N","N","trm A.1.1.1.1","MILD","CHN","CHN-1","id-147",31.3415807227196,"F","ARM A","A: Drug X","ARM A","A: Drug X","ASIAN",2020-05-14 16:32:36.683,2022-05-15 04:32:36.683,731,2022-05-15,"B","S1",2.99274239736408,"HIGH","Asia","Y","COMPLETED","COMPLETED",NA,NA,2020-12-12 16:32:36.683,212,2021-07-16 16:32:36.683,428,2020-05-31 04:30:04.748278,1,"RECOVERED/RESOLVED","Y","D.2.1.5.3/A.1.1.1.1 aesi",NA,NA,NA,NA,"DOSE NOT CHANGED"
"AB12345-CHN-1-id-147","AB12345","cl A.1","llt A.1.1.1.1","dcd A.1.1.1.1","hlt A.1.1.1","hlgt A.1.1","1","cl A","N","N","trm A.1.1.1.1","MILD","CHN","CHN-1","id-147",31.3415807227196,"F","ARM A","A: Drug X","ARM A","A: Drug X","ASIAN",2020-05-14 16:32:36.683,2022-05-15 04:32:36.683,731,2022-05-15,"B","S1",2.99274239736408,"HIGH","Asia","Y","COMPLETED","COMPLETED",NA,NA,2021-09-17 16:32:36.683,491,2022-01-21 16:32:36.683,617,2020-10-30 05:22:52.229951,2,"NOT RECOVERED/NOT RESOLVED","Y","D.2.1.5.3/A.1.1.1.1 aesi",NA,NA,NA,NA,"UNKNOWN"
"AB12345-CHN-1-id-147","AB12345","cl D.2","llt D.2.1.5.3","dcd D.2.1.5.3","hlt D.2.1.5","hlgt D.2.1","1","cl D","N","Y","trm D.2.1.5.3","MILD","CHN","CHN-1","id-147",31.3415807227196,"F","ARM A","A: Drug X","ARM A","A: Drug X","ASIAN",2020-05-14 16:32:36.683,2022-05-15 04:32:36.683,731,2022-05-15,"B","S1",2.99274239736408,"HIGH","Asia","Y","COMPLETED","COMPLETED",NA,NA,2021-11-18 16:32:36.683,553,2021-12-11 16:32:36.683,576,2021-08-04 05:05:01.074304,3,"RECOVERED/RESOLVED","Y","D.2.1.5.3/A.1.1.1.1 aesi",NA,NA,NA,NA,"NOT EVALUABLE"
"AB12345-CHN-1-id-147","AB12345","cl D.1","llt D.1.1.4.2","dcd D.1.1.4.2","hlt D.1.1.4","hlgt D.1.1","3","cl D","N","N","trm D.1.1.4.2","MODERATE","CHN","CHN-1","id-147",31.3415807227196,"F","ARM A","A: Drug X","ARM A","A: Drug X","ASIAN",2020-05-14 16:32:36.683,2022-05-15 04:32:36.683,731,2022-05-15,"B","S1",2.99274239736408,"HIGH","Asia","Y","COMPLETED","COMPLETED",NA,NA,2021-12-08 16:32:36.683,573,2022-05-13 16:32:36.683,729,2021-05-27 21:45:43.707954,4,"NOT RECOVERED/NOT RESOLVED","Y",NA,NA,NA,NA,NA,"DOSE NOT CHANGED"
"AB12345-CHN-1-id-149","AB12345","cl C.2","llt C.2.1.2.1","dcd C.2.1.2.1","hlt C.2.1.2","hlgt C.2.1","2","cl C","N","Y","trm C.2.1.2.1","MODERATE","CHN","CHN-1","id-149",32.5780082381763,"F","ARM A","A: Drug X","ARM A","A: Drug X","WHITE",2019-09-24 19:50:42.683,2021-09-24 07:50:42.683,731,2021-09-24,"C","S1",8.26943740880118,"MEDIUM","Asia","Y","COMPLETED","COMPLETED",NA,NA,2019-11-26 19:50:42.683,63,2021-01-13 19:50:42.683,477,2019-11-18 05:07:43.624777,1,"NOT RECOVERED/NOT RESOLVED","Y",NA,NA,NA,NA,NA,"DOSE NOT CHANGED"
"AB12345-CHN-1-id-149","AB12345","cl B.2","llt B.2.2.3.1","dcd B.2.2.3.1","hlt B.2.2.3","hlgt B.2.2","1","cl B","Y","N","trm B.2.2.3.1","MILD","CHN","CHN-1","id-149",32.5780082381763,"F","ARM A","A: Drug X","ARM A","A: Drug X","WHITE",2019-09-24 19:50:42.683,2021-09-24 07:50:42.683,731,2021-09-24,"C","S1",8.26943740880118,"MEDIUM","Asia","Y","COMPLETED","COMPLETED",NA,NA,2020-02-07 19:50:42.683,136,2020-07-22 19:50:42.683,302,2020-01-06 08:43:02.630403,2,"NOT RECOVERED/NOT RESOLVED","Y",NA,"C.1.1.1.3/B.2.2.3.1 aesi","BROAD",NA,NA,"NOT EVALUABLE"
"AB12345-CHN-1-id-149","AB12345","cl B.2","llt B.2.1.2.1","dcd B.2.1.2.1","hlt B.2.1.2","hlgt B.2.1","3","cl B","N","N","trm B.2.1.2.1","MODERATE","CHN","CHN-1","id-149",32.5780082381763,"F","ARM A","A: Drug X","ARM A","A: Drug X","WHITE",2019-09-24 19:50:42.683,2021-09-24 07:50:42.683,731,2021-09-24,"C","S1",8.26943740880118,"MEDIUM","Asia","Y","COMPLETED","COMPLETED",NA,NA,2021-06-09 19:50:42.683,624,2021-07-17 19:50:42.683,662,2020-09-06 08:16:15.377805,3,"NOT RECOVERED/NOT RESOLVED","Y",NA,NA,NA,NA,NA,"DOSE NOT CHANGED"
"AB12345-CHN-1-id-149","AB12345","cl A.1","llt A.1.1.1.1","dcd A.1.1.1.1","hlt A.1.1.1","hlgt A.1.1","1","cl A","N","N","trm A.1.1.1.1","MILD","CHN","CHN-1","id-149",32.5780082381763,"F","ARM A","A: Drug X","ARM A","A: Drug X","WHITE",2019-09-24 19:50:42.683,2021-09-24 07:50:42.683,731,2021-09-24,"C","S1",8.26943740880118,"MEDIUM","Asia","Y","COMPLETED","COMPLETED",NA,NA,2021-09-05 19:50:42.683,712,2021-09-13 19:50:42.683,720,2021-07-03 17:09:43.097494,4,"RECOVERING/RESOLVING","Y","D.2.1.5.3/A.1.1.1.1 aesi",NA,NA,NA,NA,"DRUG WITHDRAWN"
"AB12345-CHN-1-id-154","AB12345","cl D.2","llt D.2.1.5.3","dcd D.2.1.5.3","hlt D.2.1.5","hlgt D.2.1","1","cl D","N","Y","trm D.2.1.5.3","MILD","CHN","CHN-1","id-154",29.592031448525,"F","ARM C","C: Combination","ARM C","C: Combination","ASIAN",2019-04-21 22:44:02.683,2021-04-21 10:44:02.683,731,2021-04-21,"B","S2",12.7994508399731,"LOW","Asia","Y","COMPLETED","COMPLETED",NA,NA,2019-12-12 22:44:02.683,235,2020-08-31 22:44:02.683,498,2019-07-24 06:33:58.110775,1,"RECOVERING/RESOLVING","Y","D.2.1.5.3/A.1.1.1.1 aesi",NA,NA,NA,NA,"DRUG INTERRUPTED"
"AB12345-CHN-1-id-156","AB12345","cl B.1","llt B.1.1.1.1","dcd B.1.1.1.1","hlt B.1.1.1","hlgt B.1.1","5","cl B","Y","Y","trm B.1.1.1.1","SEVERE","CHN","CHN-1","id-156",36.3978703290498,"F","ARM C","C: Combination","ARM C","C: Combination","ASIAN",2020-09-06 02:44:04.683,2022-09-06 14:44:04.683,731,2022-09-06,"C","S1",12.0500557211388,"LOW","Asia","Y","COMPLETED","COMPLETED",NA,NA,2021-05-04 02:44:04.683,240,2022-02-04 02:44:04.683,516,2020-10-17 17:13:48.913006,1,"FATAL","Y",NA,NA,NA,NA,NA,"NOT EVALUABLE"
"AB12345-CHN-1-id-156","AB12345","cl A.1","llt A.1.1.1.2","dcd A.1.1.1.2","hlt A.1.1.1","hlgt A.1.1","2","cl A","Y","N","trm A.1.1.1.2","MODERATE","CHN","CHN-1","id-156",36.3978703290498,"F","ARM C","C: Combination","ARM C","C: Combination","ASIAN",2020-09-06 02:44:04.683,2022-09-06 14:44:04.683,731,2022-09-06,"C","S1",12.0500557211388,"LOW","Asia","Y","COMPLETED","COMPLETED",NA,NA,2021-10-16 02:44:04.683,405,2022-05-15 02:44:04.683,616,2021-06-18 15:43:25.810174,2,"UNKNOWN","Y",NA,NA,NA,NA,NA,"DOSE NOT CHANGED"
"AB12345-CHN-1-id-156","AB12345","cl C.2","llt C.2.1.2.1","dcd C.2.1.2.1","hlt C.2.1.2","hlgt C.2.1","2","cl C","N","Y","trm C.2.1.2.1","MODERATE","CHN","CHN-1","id-156",36.3978703290498,"F","ARM C","C: Combination","ARM C","C: Combination","ASIAN",2020-09-06 02:44:04.683,2022-09-06 14:44:04.683,731,2022-09-06,"C","S1",12.0500557211388,"LOW","Asia","Y","COMPLETED","COMPLETED",NA,NA,2022-01-08 02:44:04.683,489,2022-05-17 02:44:04.683,618,2021-02-26 16:19:11.486848,3,"RECOVERING/RESOLVING","Y",NA,NA,NA,NA,NA,"DOSE NOT CHANGED"
"AB12345-CHN-1-id-156","AB12345","cl B.2","llt B.2.1.2.1","dcd B.2.1.2.1","hlt B.2.1.2","hlgt B.2.1","3","cl B","N","N","trm B.2.1.2.1","MODERATE","CHN","CHN-1","id-156",36.3978703290498,"F","ARM C","C: Combination","ARM C","C: Combination","ASIAN",2020-09-06 02:44:04.683,2022-09-06 14:44:04.683,731,2022-09-06,"C","S1",12.0500557211388,"LOW","Asia","Y","COMPLETED","COMPLETED",NA,NA,2022-05-08 02:44:04.683,609,2022-06-04 02:44:04.683,636,2022-04-02 09:36:34.786232,4,"NOT RECOVERED/NOT RESOLVED","Y",NA,NA,NA,NA,NA,"DOSE INCREASED"
"AB12345-CHN-1-id-16","AB12345","cl D.1","llt D.1.1.4.2","dcd D.1.1.4.2","hlt D.1.1.4","hlgt D.1.1","3","cl D","N","N","trm D.1.1.4.2","MODERATE","CHN","CHN-1","id-16",44.122328294787,"F","ARM B","B: Placebo","ARM B","B: Placebo","BLACK OR AFRICAN AMERICAN",2019-05-31 20:12:15.683,2021-05-31 08:12:15.683,731,2021-05-31,"C","S2",5.03642592555495,"LOW","Asia","Y","COMPLETED","COMPLETED",NA,NA,2019-06-27 20:12:15.683,27,2020-02-08 20:12:15.683,253,2019-06-09 10:45:44.454818,1,"NOT RECOVERED/NOT RESOLVED","Y",NA,NA,NA,NA,NA,"DOSE NOT CHANGED"
"AB12345-CHN-1-id-16","AB12345","cl D.1","llt D.1.1.1.1","dcd D.1.1.1.1","hlt D.1.1.1","hlgt D.1.1","5","cl D","Y","Y","trm D.1.1.1.1","SEVERE","CHN","CHN-1","id-16",44.122328294787,"F","ARM B","B: Placebo","ARM B","B: Placebo","BLACK OR AFRICAN AMERICAN",2019-05-31 20:12:15.683,2021-05-31 08:12:15.683,731,2021-05-31,"C","S2",5.03642592555495,"LOW","Asia","Y","COMPLETED","COMPLETED",NA,NA,2019-08-26 20:12:15.683,87,2020-07-16 20:12:15.683,412,2019-06-18 02:45:13.555978,2,"FATAL","Y",NA,NA,NA,NA,NA,"NOT EVALUABLE"
"AB12345-CHN-1-id-16","AB12345","cl D.1","llt D.1.1.4.2","dcd D.1.1.4.2","hlt D.1.1.4","hlgt D.1.1","3","cl D","N","N","trm D.1.1.4.2","MODERATE","CHN","CHN-1","id-16",44.122328294787,"F","ARM B","B: Placebo","ARM B","B: Placebo","BLACK OR AFRICAN AMERICAN",2019-05-31 20:12:15.683,2021-05-31 08:12:15.683,731,2021-05-31,"C","S2",5.03642592555495,"LOW","Asia","Y","COMPLETED","COMPLETED",NA,NA,2020-02-22 20:12:15.683,267,2020-12-23 20:12:15.683,572,2019-08-09 16:34:12.595706,3,"UNKNOWN","Y",NA,NA,NA,NA,NA,"DOSE INCREASED"
"AB12345-CHN-1-id-160","AB12345","cl C.2","llt C.2.1.2.1","dcd C.2.1.2.1","hlt C.2.1.2","hlgt C.2.1","2","cl C","N","Y","trm C.2.1.2.1","MODERATE","CHN","CHN-1","id-160",48.1655273680552,"F","ARM C","C: Combination","ARM C","C: Combination","AMERICAN INDIAN OR ALASKA NATIVE",2019-11-02 15:20:15.683,2021-11-02 03:20:15.683,731,2021-11-02,"A","S1",3.05847238452782,"HIGH","Asia","Y","COMPLETED","COMPLETED",NA,NA,2020-06-16 15:20:15.683,227,2021-06-13 15:20:15.683,589,2019-11-26 22:29:18.861231,1,"RECOVERING/RESOLVING","Y",NA,NA,NA,NA,NA,"DOSE NOT CHANGED"
"AB12345-CHN-1-id-160","AB12345","cl B.2","llt B.2.1.2.1","dcd B.2.1.2.1","hlt B.2.1.2","hlgt B.2.1","3","cl B","N","N","trm B.2.1.2.1","MODERATE","CHN","CHN-1","id-160",48.1655273680552,"F","ARM C","C: Combination","ARM C","C: Combination","AMERICAN INDIAN OR ALASKA NATIVE",2019-11-02 15:20:15.683,2021-11-02 03:20:15.683,731,2021-11-02,"A","S1",3.05847238452782,"HIGH","Asia","Y","COMPLETED","COMPLETED",NA,NA,2021-01-02 15:20:15.683,427,2021-08-08 15:20:15.683,645,2020-04-19 21:31:53.115125,2,"RECOVERED/RESOLVED","Y",NA,NA,NA,NA,NA,"DOSE NOT CHANGED"
"AB12345-CHN-1-id-160","AB12345","cl A.1","llt A.1.1.1.2","dcd A.1.1.1.2","hlt A.1.1.1","hlgt A.1.1","2","cl A","Y","N","trm A.1.1.1.2","MODERATE","CHN","CHN-1","id-160",48.1655273680552,"F","ARM C","C: Combination","ARM C","C: Combination","AMERICAN INDIAN OR ALASKA NATIVE",2019-11-02 15:20:15.683,2021-11-02 03:20:15.683,731,2021-11-02,"A","S1",3.05847238452782,"HIGH","Asia","Y","COMPLETED","COMPLETED",NA,NA,2021-06-04 15:20:15.683,580,2021-09-28 15:20:15.683,696,2019-11-23 11:44:16.497689,3,"RECOVERED/RESOLVED WITH SEQUELAE","Y",NA,NA,NA,NA,NA,"DOSE RATE REDUCED"
"AB12345-CHN-1-id-160","AB12345","cl C.2","llt C.2.1.2.1","dcd C.2.1.2.1","hlt C.2.1.2","hlgt C.2.1","2","cl C","N","Y","trm C.2.1.2.1","MODERATE","CHN","CHN-1","id-160",48.1655273680552,"F","ARM C","C: Combination","ARM C","C: Combination","AMERICAN INDIAN OR ALASKA NATIVE",2019-11-02 15:20:15.683,2021-11-02 03:20:15.683,731,2021-11-02,"A","S1",3.05847238452782,"HIGH","Asia","Y","COMPLETED","COMPLETED",NA,NA,2021-10-19 15:20:15.683,717,2021-10-21 15:20:15.683,719,2020-02-19 19:50:10.837261,4,"RECOVERING/RESOLVING","Y",NA,NA,NA,NA,NA,"DOSE NOT CHANGED"
"AB12345-CHN-1-id-181","AB12345","cl C.1","llt C.1.1.1.3","dcd C.1.1.1.3","hlt C.1.1.1","hlgt C.1.1","4","cl C","N","Y","trm C.1.1.1.3","SEVERE","CHN","CHN-1","id-181",32.0101998902495,"F","ARM A","A: Drug X","ARM A","A: Drug X","ASIAN",2019-09-28 11:07:20.683,2021-09-27 23:07:20.683,731,2021-09-27,"B","S1",6.56234715591823,"MEDIUM","Asia","Y","COMPLETED","COMPLETED",NA,NA,2019-10-30 11:07:20.683,32,2021-09-21 11:07:20.683,724,2019-10-28 22:30:11.805933,1,"RECOVERED/RESOLVED","Y",NA,"C.1.1.1.3/B.2.2.3.1 aesi","BROAD",NA,NA,"DRUG WITHDRAWN"
"AB12345-CHN-1-id-181","AB12345","cl D.1","llt D.1.1.4.2","dcd D.1.1.4.2","hlt D.1.1.4","hlgt D.1.1","3","cl D","N","N","trm D.1.1.4.2","MODERATE","CHN","CHN-1","id-181",32.0101998902495,"F","ARM A","A: Drug X","ARM A","A: Drug X","ASIAN",2019-09-28 11:07:20.683,2021-09-27 23:07:20.683,731,2021-09-27,"B","S1",6.56234715591823,"MEDIUM","Asia","Y","COMPLETED","COMPLETED",NA,NA,2020-05-29 11:07:20.683,244,2020-09-03 11:07:20.683,341,2020-04-04 08:08:25.129482,2,"RECOVERED/RESOLVED","Y",NA,NA,NA,NA,NA,"DOSE RATE REDUCED"
"AB12345-CHN-1-id-181","AB12345","cl D.1","llt D.1.1.1.1","dcd D.1.1.1.1","hlt D.1.1.1","hlgt D.1.1","5","cl D","Y","Y","trm D.1.1.1.1","SEVERE","CHN","CHN-1","id-181",32.0101998902495,"F","ARM A","A: Drug X","ARM A","A: Drug X","ASIAN",2019-09-28 11:07:20.683,2021-09-27 23:07:20.683,731,2021-09-27,"B","S1",6.56234715591823,"MEDIUM","Asia","Y","COMPLETED","COMPLETED",NA,NA,2021-05-02 11:07:20.683,582,2021-08-18 11:07:20.683,690,2020-07-25 00:44:40.513928,3,"FATAL","Y",NA,NA,NA,NA,NA,"NOT EVALUABLE"
"AB12345-CHN-1-id-181","AB12345","cl C.1","llt C.1.1.1.3","dcd C.1.1.1.3","hlt C.1.1.1","hlgt C.1.1","4","cl C","N","Y","trm C.1.1.1.3","SEVERE","CHN","CHN-1","id-181",32.0101998902495,"F","ARM A","A: Drug X","ARM A","A: Drug X","ASIAN",2019-09-28 11:07:20.683,2021-09-27 23:07:20.683,731,2021-09-27,"B","S1",6.56234715591823,"MEDIUM","Asia","Y","COMPLETED","COMPLETED",NA,NA,2021-05-26 11:07:20.683,606,2021-07-27 11:07:20.683,668,2020-12-11 15:23:10.457759,4,"UNKNOWN","Y",NA,"C.1.1.1.3/B.2.2.3.1 aesi","BROAD",NA,NA,"DOSE NOT CHANGED"
"AB12345-CHN-1-id-181","AB12345","cl B.2","llt B.2.2.3.1","dcd B.2.2.3.1","hlt B.2.2.3","hlgt B.2.2","1","cl B","Y","N","trm B.2.2.3.1","MILD","CHN","CHN-1","id-181",32.0101998902495,"F","ARM A","A: Drug X","ARM A","A: Drug X","ASIAN",2019-09-28 11:07:20.683,2021-09-27 23:07:20.683,731,2021-09-27,"B","S1",6.56234715591823,"MEDIUM","Asia","Y","COMPLETED","COMPLETED",NA,NA,2021-08-04 11:07:20.683,676,2021-09-21 11:07:20.683,724,2020-07-02 07:54:29.04317,5,"RECOVERED/RESOLVED","Y",NA,"C.1.1.1.3/B.2.2.3.1 aesi","BROAD",NA,NA,"DOSE NOT CHANGED"
"AB12345-CHN-1-id-27","AB12345","cl A.1","llt A.1.1.1.1","dcd A.1.1.1.1","hlt A.1.1.1","hlgt A.1.1","1","cl A","N","N","trm A.1.1.1.1","MILD","CHN","CHN-1","id-27",43.0575969801394,"M","ARM C","C: Combination","ARM C","C: Combination","WHITE",2020-05-17 17:35:19.683,2022-05-18 05:35:19.683,731,2022-05-18,"A","S1",2.87215359939716,"HIGH","Asia","Y","COMPLETED","COMPLETED",NA,NA,2020-09-11 17:35:19.683,117,2021-09-05 17:35:19.683,476,2020-08-19 12:26:19.72802,1,"RECOVERED/RESOLVED","Y","D.2.1.5.3/A.1.1.1.1 aesi",NA,NA,NA,NA,"DOSE NOT CHANGED"
"AB12345-CHN-1-id-27","AB12345","cl B.2","llt B.2.2.3.1","dcd B.2.2.3.1","hlt B.2.2.3","hlgt B.2.2","1","cl B","Y","N","trm B.2.2.3.1","MILD","CHN","CHN-1","id-27",43.0575969801394,"M","ARM C","C: Combination","ARM C","C: Combination","WHITE",2020-05-17 17:35:19.683,2022-05-18 05:35:19.683,731,2022-05-18,"A","S1",2.87215359939716,"HIGH","Asia","Y","COMPLETED","COMPLETED",NA,NA,2020-11-18 17:35:19.683,185,2020-12-24 17:35:19.683,221,2020-10-06 05:02:50.295786,2,"NOT RECOVERED/NOT RESOLVED","Y",NA,"C.1.1.1.3/B.2.2.3.1 aesi","BROAD",NA,NA,"DOSE REDUCED"
"AB12345-CHN-1-id-27","AB12345","cl B.1","llt B.1.1.1.1","dcd B.1.1.1.1","hlt B.1.1.1","hlgt B.1.1","5","cl B","Y","Y","trm B.1.1.1.1","SEVERE","CHN","CHN-1","id-27",43.0575969801394,"M","ARM C","C: Combination","ARM C","C: Combination","WHITE",2020-05-17 17:35:19.683,2022-05-18 05:35:19.683,731,2022-05-18,"A","S1",2.87215359939716,"HIGH","Asia","Y","COMPLETED","COMPLETED",NA,NA,2021-03-23 17:35:19.683,310,2022-04-04 17:35:19.683,687,2020-07-19 23:34:52.58876,3,"FATAL","Y",NA,NA,NA,NA,NA,"NOT EVALUABLE"
"AB12345-CHN-1-id-27","AB12345","cl D.1","llt D.1.1.4.2","dcd D.1.1.4.2","hlt D.1.1.4","hlgt D.1.1","3","cl D","N","N","trm D.1.1.4.2","MODERATE","CHN","CHN-1","id-27",43.0575969801394,"M","ARM C","C: Combination","ARM C","C: Combination","WHITE",2020-05-17 17:35:19.683,2022-05-18 05:35:19.683,731,2022-05-18,"A","S1",2.87215359939716,"HIGH","Asia","Y","COMPLETED","COMPLETED",NA,NA,2021-03-24 17:35:19.683,311,2022-03-10 17:35:19.683,662,2020-08-15 16:22:28.778223,4,"RECOVERING/RESOLVING","Y",NA,NA,NA,NA,NA,"DOSE NOT CHANGED"
"AB12345-CHN-1-id-27","AB12345","cl B.2","llt B.2.1.2.1","dcd B.2.1.2.1","hlt B.2.1.2","hlgt B.2.1","3","cl B","N","N","trm B.2.1.2.1","MODERATE","CHN","CHN-1","id-27",43.0575969801394,"M","ARM C","C: Combination","ARM C","C: Combination","WHITE",2020-05-17 17:35:19.683,2022-05-18 05:35:19.683,731,2022-05-18,"A","S1",2.87215359939716,"HIGH","Asia","Y","COMPLETED","COMPLETED",NA,NA,2021-11-01 17:35:19.683,533,2022-01-24 17:35:19.683,617,2020-06-22 15:51:46.554359,5,"RECOVERING/RESOLVING","Y",NA,NA,NA,NA,NA,"DOSE NOT CHANGED"
"AB12345-CHN-1-id-33","AB12345","cl C.2","llt C.2.1.2.1","dcd C.2.1.2.1","hlt C.2.1.2","hlgt C.2.1","2","cl C","N","Y","trm C.2.1.2.1","MODERATE","CHN","CHN-1","id-33",47.6878772319833,"F","ARM A","A: Drug X","ARM A","A: Drug X","WHITE",2020-03-25 09:30:52.683,2022-03-25 21:30:52.683,731,2022-03-25,"C","S2",3.80258947606694,"HIGH","Asia","Y","COMPLETED","COMPLETED",NA,NA,2021-05-11 09:30:52.683,412,2021-10-06 09:30:52.683,560,2020-08-10 22:23:20.586666,1,"RECOVERED/RESOLVED","Y",NA,NA,NA,NA,NA,"DOSE NOT CHANGED"
"AB12345-CHN-1-id-33","AB12345","cl B.2","llt B.2.1.2.1","dcd B.2.1.2.1","hlt B.2.1.2","hlgt B.2.1","3","cl B","N","N","trm B.2.1.2.1","MODERATE","CHN","CHN-1","id-33",47.6878772319833,"F","ARM A","A: Drug X","ARM A","A: Drug X","WHITE",2020-03-25 09:30:52.683,2022-03-25 21:30:52.683,731,2022-03-25,"C","S2",3.80258947606694,"HIGH","Asia","Y","COMPLETED","COMPLETED",NA,NA,2021-11-03 09:30:52.683,588,2021-12-31 09:30:52.683,646,2020-06-18 10:49:13.786449,2,"RECOVERING/RESOLVING","Y",NA,NA,NA,NA,NA,"DOSE NOT CHANGED"
"AB12345-CHN-1-id-47","AB12345","cl A.1","llt A.1.1.1.2","dcd A.1.1.1.2","hlt A.1.1.1","hlgt A.1.1","2","cl A","Y","N","trm A.1.1.1.2","MODERATE","CHN","CHN-1","id-47",29.1653939190282,"M","ARM A","A: Drug X","ARM A","A: Drug X","ASIAN",2020-05-15 12:42:50.683,2022-05-16 00:42:50.683,731,2022-05-16,"B","S1",11.5713550399098,"LOW","Asia","Y","COMPLETED","COMPLETED",NA,NA,2021-06-25 12:42:50.683,406,2021-09-20 12:42:50.683,493,2020-08-22 02:01:52.64537,1,"RECOVERED/RESOLVED","Y",NA,NA,NA,NA,NA,"DOSE INCREASED"
"AB12345-CHN-1-id-47","AB12345","cl A.1","llt A.1.1.1.1","dcd A.1.1.1.1","hlt A.1.1.1","hlgt A.1.1","1","cl A","N","N","trm A.1.1.1.1","MILD","CHN","CHN-1","id-47",29.1653939190282,"M","ARM A","A: Drug X","ARM A","A: Drug X","ASIAN",2020-05-15 12:42:50.683,2022-05-16 00:42:50.683,731,2022-05-16,"B","S1",11.5713550399098,"LOW","Asia","Y","COMPLETED","COMPLETED",NA,NA,2021-09-02 12:42:50.683,475,2022-03-27 12:42:50.683,681,2020-07-30 15:31:24.837636,2,"RECOVERED/RESOLVED","Y","D.2.1.5.3/A.1.1.1.1 aesi",NA,NA,NA,NA,"NOT EVALUABLE"
"AB12345-CHN-1-id-47","AB12345","cl C.1","llt C.1.1.1.3","dcd C.1.1.1.3","hlt C.1.1.1","hlgt C.1.1","4","cl C","N","Y","trm C.1.1.1.3","SEVERE","CHN","CHN-1","id-47",29.1653939190282,"M","ARM A","A: Drug X","ARM A","A: Drug X","ASIAN",2020-05-15 12:42:50.683,2022-05-16 00:42:50.683,731,2022-05-16,"B","S1",11.5713550399098,"LOW","Asia","Y","COMPLETED","COMPLETED",NA,NA,2022-04-03 12:42:50.683,688,2022-05-15 12:42:50.683,730,2022-03-18 20:01:12.961257,3,"NOT RECOVERED/NOT RESOLVED","Y",NA,"C.1.1.1.3/B.2.2.3.1 aesi","BROAD",NA,NA,"NOT APPLICABLE"
"AB12345-CHN-1-id-47","AB12345","cl B.2","llt B.2.1.2.1","dcd B.2.1.2.1","hlt B.2.1.2","hlgt B.2.1","3","cl B","N","N","trm B.2.1.2.1","MODERATE","CHN","CHN-1","id-47",29.1653939190282,"M","ARM A","A: Drug X","ARM A","A: Drug X","ASIAN",2020-05-15 12:42:50.683,2022-05-16 00:42:50.683,731,2022-05-16,"B","S1",11.5713550399098,"LOW","Asia","Y","COMPLETED","COMPLETED",NA,NA,2022-04-15 12:42:50.683,700,2022-04-30 12:42:50.683,715,2020-10-07 19:21:20.094252,4,"RECOVERING/RESOLVING","Y",NA,NA,NA,NA,NA,"DOSE REDUCED"
"AB12345-CHN-1-id-53","AB12345","cl C.1","llt C.1.1.1.3","dcd C.1.1.1.3","hlt C.1.1.1","hlgt C.1.1","4","cl C","N","Y","trm C.1.1.1.3","SEVERE","CHN","CHN-1","id-53",34.7728323616689,"F","ARM B","B: Placebo","ARM B","B: Placebo","ASIAN",2020-11-22 20:08:34.683,2022-11-23 08:08:34.683,731,2022-11-23,"C","S2",10.8198691088518,"MEDIUM","Asia","Y","COMPLETED","COMPLETED",NA,NA,2021-12-19 20:08:34.683,392,2022-02-08 20:08:34.683,443,2021-05-14 08:52:15.428713,1,"RECOVERED/RESOLVED","Y",NA,"C.1.1.1.3/B.2.2.3.1 aesi","BROAD",NA,NA,"DOSE NOT CHANGED"
"AB12345-CHN-1-id-53","AB12345","cl A.1","llt A.1.1.1.2","dcd A.1.1.1.2","hlt A.1.1.1","hlgt A.1.1","2","cl A","Y","N","trm A.1.1.1.2","MODERATE","CHN","CHN-1","id-53",34.7728323616689,"F","ARM B","B: Placebo","ARM B","B: Placebo","ASIAN",2020-11-22 20:08:34.683,2022-11-23 08:08:34.683,731,2022-11-23,"C","S2",10.8198691088518,"MEDIUM","Asia","Y","COMPLETED","COMPLETED",NA,NA,2022-02-12 20:08:34.683,447,2022-03-28 20:08:34.683,491,2021-04-26 20:29:03.552577,2,"RECOVERED/RESOLVED WITH SEQUELAE","Y",NA,NA,NA,NA,NA,"DOSE NOT CHANGED"
"AB12345-CHN-1-id-53","AB12345","cl B.2","llt B.2.2.3.1","dcd B.2.2.3.1","hlt B.2.2.3","hlgt B.2.2","1","cl B","Y","N","trm B.2.2.3.1","MILD","CHN","CHN-1","id-53",34.7728323616689,"F","ARM B","B: Placebo","ARM B","B: Placebo","ASIAN",2020-11-22 20:08:34.683,2022-11-23 08:08:34.683,731,2022-11-23,"C","S2",10.8198691088518,"MEDIUM","Asia","Y","COMPLETED","COMPLETED",NA,NA,2022-06-21 20:08:34.683,576,2022-09-15 20:08:34.683,662,2021-04-28 00:57:03.553268,3,"RECOVERED/RESOLVED","Y",NA,"C.1.1.1.3/B.2.2.3.1 aesi","BROAD",NA,NA,"DRUG WITHDRAWN"
"AB12345-CHN-1-id-53","AB12345","cl C.1","llt C.1.1.1.3","dcd C.1.1.1.3","hlt C.1.1.1","hlgt C.1.1","4","cl C","N","Y","trm C.1.1.1.3","SEVERE","CHN","CHN-1","id-53",34.7728323616689,"F","ARM B","B: Placebo","ARM B","B: Placebo","ASIAN",2020-11-22 20:08:34.683,2022-11-23 08:08:34.683,731,2022-11-23,"C","S2",10.8198691088518,"MEDIUM","Asia","Y","COMPLETED","COMPLETED",NA,NA,2022-06-26 20:08:34.683,581,2022-11-17 20:08:34.683,725,2022-01-10 04:42:59.632344,4,"RECOVERED/RESOLVED","Y",NA,"C.1.1.1.3/B.2.2.3.1 aesi","BROAD",NA,NA,"DOSE NOT CHANGED"
"AB12345-CHN-1-id-55","AB12345","cl D.1","llt D.1.1.1.1","dcd D.1.1.1.1","hlt D.1.1.1","hlgt D.1.1","5","cl D","Y","Y","trm D.1.1.1.1","SEVERE","CHN","CHN-1","id-55",30.8357361388922,"M","ARM A","A: Drug X","ARM A","A: Drug X","BLACK OR AFRICAN AMERICAN",2021-02-15 19:33:48.683,2023-02-16 07:33:48.683,731,2023-02-16,"C","S2",1.4938471915155,"MEDIUM","Asia","Y","COMPLETED","COMPLETED",NA,NA,2021-04-28 19:33:48.683,72,2022-08-03 19:33:48.683,534,2021-04-11 20:12:51.848726,1,"FATAL","Y",NA,NA,NA,NA,NA,"NOT EVALUABLE"
"AB12345-CHN-1-id-55","AB12345","cl C.2","llt C.2.1.2.1","dcd C.2.1.2.1","hlt C.2.1.2","hlgt C.2.1","2","cl C","N","Y","trm C.2.1.2.1","MODERATE","CHN","CHN-1","id-55",30.8357361388922,"M","ARM A","A: Drug X","ARM A","A: Drug X","BLACK OR AFRICAN AMERICAN",2021-02-15 19:33:48.683,2023-02-16 07:33:48.683,731,2023-02-16,"C","S2",1.4938471915155,"MEDIUM","Asia","Y","COMPLETED","COMPLETED",NA,NA,2021-10-07 19:33:48.683,234,2021-12-13 19:33:48.683,301,2021-03-17 08:36:28.143639,2,"RECOVERING/RESOLVING","Y",NA,NA,NA,NA,NA,"NOT EVALUABLE"
"AB12345-CHN-1-id-55","AB12345","cl B.2","llt B.2.2.3.1","dcd B.2.2.3.1","hlt B.2.2.3","hlgt B.2.2","1","cl B","Y","N","trm B.2.2.3.1","MILD","CHN","CHN-1","id-55",30.8357361388922,"M","ARM A","A: Drug X","ARM A","A: Drug X","BLACK OR AFRICAN AMERICAN",2021-02-15 19:33:48.683,2023-02-16 07:33:48.683,731,2023-02-16,"C","S2",1.4938471915155,"MEDIUM","Asia","Y","COMPLETED","COMPLETED",NA,NA,2022-01-04 19:33:48.683,323,2022-07-25 19:33:48.683,525,2021-11-03 13:04:11.010888,3,"RECOVERED/RESOLVED","Y",NA,"C.1.1.1.3/B.2.2.3.1 aesi","BROAD",NA,NA,"DRUG WITHDRAWN"
"AB12345-CHN-1-id-55","AB12345","cl D.1","llt D.1.1.1.1","dcd D.1.1.1.1","hlt D.1.1.1","hlgt D.1.1","5","cl D","Y","Y","trm D.1.1.1.1","SEVERE","CHN","CHN-1","id-55",30.8357361388922,"M","ARM A","A: Drug X","ARM A","A: Drug X","BLACK OR AFRICAN AMERICAN",2021-02-15 19:33:48.683,2023-02-16 07:33:48.683,731,2023-02-16,"C","S2",1.4938471915155,"MEDIUM","Asia","Y","COMPLETED","COMPLETED",NA,NA,2022-05-17 19:33:48.683,456,2022-05-19 19:33:48.683,458,2021-04-10 15:52:40.418939,4,"FATAL","Y",NA,NA,NA,NA,NA,"NOT EVALUABLE"
"AB12345-CHN-1-id-62","AB12345","cl B.2","llt B.2.2.3.1","dcd B.2.2.3.1","hlt B.2.2.3","hlgt B.2.2","1","cl B","Y","N","trm B.2.2.3.1","MILD","CHN","CHN-1","id-62",49.6258107530916,"M","ARM B","B: Placebo","ARM B","B: Placebo","ASIAN",2019-03-05 18:05:36.683,2021-03-05 06:05:36.683,731,2021-03-05,"B","S2",2.17020042539421,"HIGH","Asia","Y","COMPLETED","COMPLETED",NA,NA,2019-03-18 18:05:36.683,13,2020-05-20 18:05:36.683,442,2019-03-06 11:41:54.130668,1,"RECOVERING/RESOLVING","Y",NA,"C.1.1.1.3/B.2.2.3.1 aesi","BROAD",NA,NA,"DOSE NOT CHANGED"
"AB12345-CHN-1-id-62","AB12345","cl B.2","llt B.2.1.2.1","dcd B.2.1.2.1","hlt B.2.1.2","hlgt B.2.1","3","cl B","N","N","trm B.2.1.2.1","MODERATE","CHN","CHN-1","id-62",49.6258107530916,"M","ARM B","B: Placebo","ARM B","B: Placebo","ASIAN",2019-03-05 18:05:36.683,2021-03-05 06:05:36.683,731,2021-03-05,"B","S2",2.17020042539421,"HIGH","Asia","Y","COMPLETED","COMPLETED",NA,NA,2019-05-07 18:05:36.683,63,2020-10-23 18:05:36.683,598,2019-03-12 18:14:52.814423,2,"RECOVERED/RESOLVED","Y",NA,NA,NA,NA,NA,"NOT APPLICABLE"
"AB12345-CHN-1-id-62","AB12345","cl B.2","llt B.2.1.2.1","dcd B.2.1.2.1","hlt B.2.1.2","hlgt B.2.1","3","cl B","N","N","trm B.2.1.2.1","MODERATE","CHN","CHN-1","id-62",49.6258107530916,"M","ARM B","B: Placebo","ARM B","B: Placebo","ASIAN",2019-03-05 18:05:36.683,2021-03-05 06:05:36.683,731,2021-03-05,"B","S2",2.17020042539421,"HIGH","Asia","Y","COMPLETED","COMPLETED",NA,NA,2019-06-20 18:05:36.683,107,2019-06-27 18:05:36.683,114,2019-04-17 08:22:45.353757,3,"RECOVERING/RESOLVING","Y",NA,NA,NA,NA,NA,"DOSE REDUCED"
"AB12345-CHN-1-id-62","AB12345","cl C.2","llt C.2.1.2.1","dcd C.2.1.2.1","hlt C.2.1.2","hlgt C.2.1","2","cl C","N","Y","trm C.2.1.2.1","MODERATE","CHN","CHN-1","id-62",49.6258107530916,"M","ARM B","B: Placebo","ARM B","B: Placebo","ASIAN",2019-03-05 18:05:36.683,2021-03-05 06:05:36.683,731,2021-03-05,"B","S2",2.17020042539421,"HIGH","Asia","Y","COMPLETED","COMPLETED",NA,NA,2020-05-07 18:05:36.683,429,2020-11-18 18:05:36.683,624,2019-06-20 01:10:50.001143,4,"RECOVERING/RESOLVING","Y",NA,NA,NA,NA,NA,"DOSE INCREASED"
"AB12345-CHN-1-id-62","AB12345","cl D.2","llt D.2.1.5.3","dcd D.2.1.5.3","hlt D.2.1.5","hlgt D.2.1","1","cl D","N","Y","trm D.2.1.5.3","MILD","CHN","CHN-1","id-62",49.6258107530916,"M","ARM B","B: Placebo","ARM B","B: Placebo","ASIAN",2019-03-05 18:05:36.683,2021-03-05 06:05:36.683,731,2021-03-05,"B","S2",2.17020042539421,"HIGH","Asia","Y","COMPLETED","COMPLETED",NA,NA,2020-06-29 18:05:36.683,482,2020-09-03 18:05:36.683,548,2019-09-24 23:25:24.291901,5,"RECOVERING/RESOLVING","Y","D.2.1.5.3/A.1.1.1.1 aesi",NA,NA,NA,NA,"UNKNOWN"
"AB12345-CHN-1-id-63","AB12345","cl D.1","llt D.1.1.1.1","dcd D.1.1.1.1","hlt D.1.1.1","hlgt D.1.1","5","cl D","Y","Y","trm D.1.1.1.1","SEVERE","CHN","CHN-1","id-63",27.8548040548751,"F","ARM C","C: Combination","ARM C","C: Combination","BLACK OR AFRICAN AMERICAN",2020-03-12 19:29:10.683,2022-03-13 07:29:10.683,731,2022-03-13,"C","S1",2.95779194374611,"MEDIUM","Asia","Y","COMPLETED","COMPLETED",NA,NA,2020-06-02 19:29:10.683,82,2020-09-16 19:29:10.683,188,2020-04-01 10:12:38.552232,1,"FATAL","Y",NA,NA,NA,NA,NA,"NOT EVALUABLE"
"AB12345-CHN-1-id-63","AB12345","cl A.1","llt A.1.1.1.1","dcd A.1.1.1.1","hlt A.1.1.1","hlgt A.1.1","1","cl A","N","N","trm A.1.1.1.1","MILD","CHN","CHN-1","id-63",27.8548040548751,"F","ARM C","C: Combination","ARM C","C: Combination","BLACK OR AFRICAN AMERICAN",2020-03-12 19:29:10.683,2022-03-13 07:29:10.683,731,2022-03-13,"C","S1",2.95779194374611,"MEDIUM","Asia","Y","COMPLETED","COMPLETED",NA,NA,2021-06-13 19:29:10.683,458,2021-11-05 19:29:10.683,603,2021-04-06 08:32:14.103919,2,"RECOVERING/RESOLVING","Y","D.2.1.5.3/A.1.1.1.1 aesi",NA,NA,NA,NA,"DOSE INCREASED"
"AB12345-CHN-1-id-63","AB12345","cl D.2","llt D.2.1.5.3","dcd D.2.1.5.3","hlt D.2.1.5","hlgt D.2.1","1","cl D","N","Y","trm D.2.1.5.3","MILD","CHN","CHN-1","id-63",27.8548040548751,"F","ARM C","C: Combination","ARM C","C: Combination","BLACK OR AFRICAN AMERICAN",2020-03-12 19:29:10.683,2022-03-13 07:29:10.683,731,2022-03-13,"C","S1",2.95779194374611,"MEDIUM","Asia","Y","COMPLETED","COMPLETED",NA,NA,2021-11-27 19:29:10.683,625,2022-03-12 19:29:10.683,730,2020-08-01 16:51:49.856477,3,"RECOVERING/RESOLVING","Y","D.2.1.5.3/A.1.1.1.1 aesi",NA,NA,NA,NA,"DOSE RATE REDUCED"
"AB12345-CHN-1-id-73","AB12345","cl D.1","llt D.1.1.4.2","dcd D.1.1.4.2","hlt D.1.1.4","hlgt D.1.1","3","cl D","N","N","trm D.1.1.4.2","MODERATE","CHN","CHN-1","id-73",28.6029319453292,"M","ARM B","B: Placebo","ARM B","B: Placebo","ASIAN",2020-09-08 00:11:41.683,2022-09-08 12:11:41.683,731,2022-09-08,"C","S1",10.3391180689068,"MEDIUM","Asia","Y","COMPLETED","COMPLETED",NA,NA,2020-11-01 00:11:41.683,54,2022-09-05 00:11:41.683,727,2020-09-20 02:22:37.025184,1,"UNKNOWN","Y",NA,NA,NA,NA,NA,"DOSE INCREASED"
"AB12345-CHN-1-id-73","AB12345","cl B.1","llt B.1.1.1.1","dcd B.1.1.1.1","hlt B.1.1.1","hlgt B.1.1","5","cl B","Y","Y","trm B.1.1.1.1","SEVERE","CHN","CHN-1","id-73",28.6029319453292,"M","ARM B","B: Placebo","ARM B","B: Placebo","ASIAN",2020-09-08 00:11:41.683,2022-09-08 12:11:41.683,731,2022-09-08,"C","S1",10.3391180689068,"MEDIUM","Asia","Y","COMPLETED","COMPLETED",NA,NA,2021-05-30 00:11:41.683,264,2022-02-03 00:11:41.683,513,2021-04-03 19:42:48.464694,2,"FATAL","Y",NA,NA,NA,NA,NA,"NOT EVALUABLE"
"AB12345-CHN-1-id-73","AB12345","cl C.1","llt C.1.1.1.3","dcd C.1.1.1.3","hlt C.1.1.1","hlgt C.1.1","4","cl C","N","Y","trm C.1.1.1.3","SEVERE","CHN","CHN-1","id-73",28.6029319453292,"M","ARM B","B: Placebo","ARM B","B: Placebo","ASIAN",2020-09-08 00:11:41.683,2022-09-08 12:11:41.683,731,2022-09-08,"C","S1",10.3391180689068,"MEDIUM","Asia","Y","COMPLETED","COMPLETED",NA,NA,2021-06-23 00:11:41.683,288,2021-12-26 00:11:41.683,474,2021-04-25 17:07:53.886422,3,"UNKNOWN","Y",NA,"C.1.1.1.3/B.2.2.3.1 aesi","BROAD",NA,NA,"DOSE NOT CHANGED"
"AB12345-CHN-1-id-75","AB12345","cl A.1","llt A.1.1.1.1","dcd A.1.1.1.1","hlt A.1.1.1","hlgt A.1.1","1","cl A","N","N","trm A.1.1.1.1","MILD","CHN","CHN-1","id-75",42.3135012294694,"M","ARM A","A: Drug X","ARM A","A: Drug X","WHITE",2020-11-04 04:42:16.683,2022-11-04 16:42:16.683,731,2022-11-04,"B","S1",9.98964576128142,"LOW","Asia","Y","COMPLETED","COMPLETED",NA,NA,2021-04-27 04:42:16.683,174,2022-09-25 04:42:16.683,690,2020-11-30 04:11:08.486213,1,"NOT RECOVERED/NOT RESOLVED","Y","D.2.1.5.3/A.1.1.1.1 aesi",NA,NA,NA,NA,"DOSE REDUCED"
"AB12345-CHN-1-id-75","AB12345","cl A.1","llt A.1.1.1.1","dcd A.1.1.1.1","hlt A.1.1.1","hlgt A.1.1","1","cl A","N","N","trm A.1.1.1.1","MILD","CHN","CHN-1","id-75",42.3135012294694,"M","ARM A","A: Drug X","ARM A","A: Drug X","WHITE",2020-11-04 04:42:16.683,2022-11-04 16:42:16.683,731,2022-11-04,"B","S1",9.98964576128142,"LOW","Asia","Y","COMPLETED","COMPLETED",NA,NA,2021-09-28 04:42:16.683,328,2022-04-06 04:42:16.683,518,2021-09-18 20:53:56.937446,2,"RECOVERING/RESOLVING","Y","D.2.1.5.3/A.1.1.1.1 aesi",NA,NA,NA,NA,"DOSE NOT CHANGED"
"AB12345-CHN-11-id-102","AB12345","cl A.1","llt A.1.1.1.2","dcd A.1.1.1.2","hlt A.1.1.1","hlgt A.1.1","2","cl A","Y","N","trm A.1.1.1.2","MODERATE","CHN","CHN-11","id-102",33.5139470801063,"M","ARM A","A: Drug X","ARM A","A: Drug X","ASIAN",2021-01-28 08:09:03.683,2023-01-28 20:09:03.683,731,2023-01-28,"A","S1",8.67213112565123,"MEDIUM","Asia","Y","COMPLETED","COMPLETED",NA,NA,2021-01-28 08:09:03.683,0,2021-08-06 08:09:03.683,190,2021-01-28 08:09:03.683,1,"RECOVERED/RESOLVED WITH SEQUELAE","Y",NA,NA,NA,NA,NA,"DOSE NOT CHANGED"
"AB12345-CHN-11-id-102","AB12345","cl D.2","llt D.2.1.5.3","dcd D.2.1.5.3","hlt D.2.1.5","hlgt D.2.1","1","cl D","N","Y","trm D.2.1.5.3","MILD","CHN","CHN-11","id-102",33.5139470801063,"M","ARM A","A: Drug X","ARM A","A: Drug X","ASIAN",2021-01-28 08:09:03.683,2023-01-28 20:09:03.683,731,2023-01-28,"A","S1",8.67213112565123,"MEDIUM","Asia","Y","COMPLETED","COMPLETED",NA,NA,2022-03-14 08:09:03.683,410,2023-01-19 08:09:03.683,721,2021-07-07 10:50:58.119345,2,"RECOVERED/RESOLVED","Y","D.2.1.5.3/A.1.1.1.1 aesi",NA,NA,NA,NA,"DRUG WITHDRAWN"
"AB12345-CHN-11-id-102","AB12345","cl D.1","llt D.1.1.1.1","dcd D.1.1.1.1","hlt D.1.1.1","hlgt D.1.1","5","cl D","Y","Y","trm D.1.1.1.1","SEVERE","CHN","CHN-11","id-102",33.5139470801063,"M","ARM A","A: Drug X","ARM A","A: Drug X","ASIAN",2021-01-28 08:09:03.683,2023-01-28 20:09:03.683,731,2023-01-28,"A","S1",8.67213112565123,"MEDIUM","Asia","Y","COMPLETED","COMPLETED",NA,NA,2022-10-06 08:09:03.683,616,2022-11-06 08:09:03.683,647,2021-07-26 14:03:11.482617,3,"FATAL","Y",NA,NA,NA,NA,NA,"NOT EVALUABLE"
"AB12345-CHN-11-id-102","AB12345","cl B.2","llt B.2.2.3.1","dcd B.2.2.3.1","hlt B.2.2.3","hlgt B.2.2","1","cl B","Y","N","trm B.2.2.3.1","MILD","CHN","CHN-11","id-102",33.5139470801063,"M","ARM A","A: Drug X","ARM A","A: Drug X","ASIAN",2021-01-28 08:09:03.683,2023-01-28 20:09:03.683,731,2023-01-28,"A","S1",8.67213112565123,"MEDIUM","Asia","Y","COMPLETED","COMPLETED",NA,NA,2022-12-11 08:09:03.683,682,2022-12-21 08:09:03.683,692,2022-03-19 05:26:01.015643,4,"RECOVERED/RESOLVED WITH SEQUELAE","Y",NA,"C.1.1.1.3/B.2.2.3.1 aesi","BROAD",NA,NA,"DOSE NOT CHANGED"
"AB12345-CHN-11-id-107","AB12345","cl B.2","llt B.2.1.2.1","dcd B.2.1.2.1","hlt B.2.1.2","hlgt B.2.1","3","cl B","N","N","trm B.2.1.2.1","MODERATE","CHN","CHN-11","id-107",34.8067568179775,"F","ARM A","A: Drug X","ARM A","A: Drug X","ASIAN",2019-11-19 14:33:35.683,2021-11-19 02:33:35.683,731,2021-11-19,"C","S1",7.89394022748725,"LOW","Asia","Y","COMPLETED","COMPLETED",NA,NA,2020-03-24 14:33:35.683,126,2021-06-17 14:33:35.683,576,2020-03-22 19:22:17.692042,1,"RECOVERED/RESOLVED","Y",NA,NA,NA,NA,NA,"DOSE NOT CHANGED"
"AB12345-CHN-11-id-12","AB12345","cl C.2","llt C.2.1.2.1","dcd C.2.1.2.1","hlt C.2.1.2","hlgt C.2.1","2","cl C","N","Y","trm C.2.1.2.1","MODERATE","CHN","CHN-11","id-12",41.7754088898233,"F","ARM A","A: Drug X","ARM A","A: Drug X","BLACK OR AFRICAN AMERICAN",2019-10-18 15:19:06.683,2021-10-18 03:19:06.683,731,2021-10-18,"B","S2",8.61174045009678,"MEDIUM","Asia","Y","COMPLETED","COMPLETED",NA,NA,2020-09-26 15:19:06.683,344,2021-09-01 15:19:06.683,684,2020-01-10 20:04:39.147063,1,"RECOVERING/RESOLVING","Y",NA,NA,NA,NA,NA,"DOSE NOT CHANGED"
"AB12345-CHN-11-id-12","AB12345","cl D.2","llt D.2.1.5.3","dcd D.2.1.5.3","hlt D.2.1.5","hlgt D.2.1","1","cl D","N","Y","trm D.2.1.5.3","MILD","CHN","CHN-11","id-12",41.7754088898233,"F","ARM A","A: Drug X","ARM A","A: Drug X","BLACK OR AFRICAN AMERICAN",2019-10-18 15:19:06.683,2021-10-18 03:19:06.683,731,2021-10-18,"B","S2",8.61174045009678,"MEDIUM","Asia","Y","COMPLETED","COMPLETED",NA,NA,2021-02-11 15:19:06.683,482,2021-03-28 15:19:06.683,527,2020-05-14 13:05:46.408711,2,"RECOVERING/RESOLVING","Y","D.2.1.5.3/A.1.1.1.1 aesi",NA,NA,NA,NA,"DRUG INTERRUPTED"
"AB12345-CHN-11-id-12","AB12345","cl B.1","llt B.1.1.1.1","dcd B.1.1.1.1","hlt B.1.1.1","hlgt B.1.1","5","cl B","Y","Y","trm B.1.1.1.1","SEVERE","CHN","CHN-11","id-12",41.7754088898233,"F","ARM A","A: Drug X","ARM A","A: Drug X","BLACK OR AFRICAN AMERICAN",2019-10-18 15:19:06.683,2021-10-18 03:19:06.683,731,2021-10-18,"B","S2",8.61174045009678,"MEDIUM","Asia","Y","COMPLETED","COMPLETED",NA,NA,2021-03-25 15:19:06.683,524,2021-07-19 15:19:06.683,640,2021-01-19 19:07:47.890249,3,"FATAL","Y",NA,NA,NA,NA,NA,"NOT EVALUABLE"
"AB12345-CHN-11-id-12","AB12345","cl D.2","llt D.2.1.5.3","dcd D.2.1.5.3","hlt D.2.1.5","hlgt D.2.1","1","cl D","N","Y","trm D.2.1.5.3","MILD","CHN","CHN-11","id-12",41.7754088898233,"F","ARM A","A: Drug X","ARM A","A: Drug X","BLACK OR AFRICAN AMERICAN",2019-10-18 15:19:06.683,2021-10-18 03:19:06.683,731,2021-10-18,"B","S2",8.61174045009678,"MEDIUM","Asia","Y","COMPLETED","COMPLETED",NA,NA,2021-04-29 15:19:06.683,559,2021-09-20 15:19:06.683,703,2020-01-28 17:53:02.326227,4,"RECOVERED/RESOLVED WITH SEQUELAE","Y","D.2.1.5.3/A.1.1.1.1 aesi",NA,NA,NA,NA,"DOSE NOT CHANGED"
"AB12345-CHN-11-id-12","AB12345","cl C.1","llt C.1.1.1.3","dcd C.1.1.1.3","hlt C.1.1.1","hlgt C.1.1","4","cl C","N","Y","trm C.1.1.1.3","SEVERE","CHN","CHN-11","id-12",41.7754088898233,"F","ARM A","A: Drug X","ARM A","A: Drug X","BLACK OR AFRICAN AMERICAN",2019-10-18 15:19:06.683,2021-10-18 03:19:06.683,731,2021-10-18,"B","S2",8.61174045009678,"MEDIUM","Asia","Y","COMPLETED","COMPLETED",NA,NA,2021-05-02 15:19:06.683,562,2021-07-15 15:19:06.683,636,2019-12-08 09:36:19.15839,5,"RECOVERED/RESOLVED","Y",NA,"C.1.1.1.3/B.2.2.3.1 aesi","BROAD",NA,NA,"DOSE NOT CHANGED"
"AB12345-CHN-11-id-158","AB12345","cl D.2","llt D.2.1.5.3","dcd D.2.1.5.3","hlt D.2.1.5","hlgt D.2.1","1","cl D","N","Y","trm D.2.1.5.3","MILD","CHN","CHN-11","id-158",28.3520663975834,"F","ARM B","B: Placebo","ARM B","B: Placebo","ASIAN",2019-06-16 19:48:46.683,2021-06-16 07:48:46.683,731,2021-06-16,"B","S2",6.91271434865216,"MEDIUM","Asia","Y","COMPLETED","COMPLETED",NA,NA,2019-06-30 19:48:46.683,14,2019-07-10 19:48:46.683,24,2019-06-23 05:58:06.953333,1,"NOT RECOVERED/NOT RESOLVED","Y","D.2.1.5.3/A.1.1.1.1 aesi",NA,NA,NA,NA,"NOT APPLICABLE"
"AB12345-CHN-11-id-158","AB12345","cl C.1","llt C.1.1.1.3","dcd C.1.1.1.3","hlt C.1.1.1","hlgt C.1.1","4","cl C","N","Y","trm C.1.1.1.3","SEVERE","CHN","CHN-11","id-158",28.3520663975834,"F","ARM B","B: Placebo","ARM B","B: Placebo","ASIAN",2019-06-16 19:48:46.683,2021-06-16 07:48:46.683,731,2021-06-16,"B","S2",6.91271434865216,"MEDIUM","Asia","Y","COMPLETED","COMPLETED",NA,NA,2020-02-01 19:48:46.683,230,2020-05-08 19:48:46.683,327,2019-12-19 09:35:49.736715,2,"NOT RECOVERED/NOT RESOLVED","Y",NA,"C.1.1.1.3/B.2.2.3.1 aesi","BROAD",NA,NA,"DOSE NOT CHANGED"
"AB12345-CHN-11-id-158","AB12345","cl A.1","llt A.1.1.1.1","dcd A.1.1.1.1","hlt A.1.1.1","hlgt A.1.1","1","cl A","N","N","trm A.1.1.1.1","MILD","CHN","CHN-11","id-158",28.3520663975834,"F","ARM B","B: Placebo","ARM B","B: Placebo","ASIAN",2019-06-16 19:48:46.683,2021-06-16 07:48:46.683,731,2021-06-16,"B","S2",6.91271434865216,"MEDIUM","Asia","Y","COMPLETED","COMPLETED",NA,NA,2020-07-27 19:48:46.683,407,2020-11-04 19:48:46.683,507,2019-07-20 01:07:12.854443,3,"RECOVERED/RESOLVED","Y","D.2.1.5.3/A.1.1.1.1 aesi",NA,NA,NA,NA,"DOSE NOT CHANGED"
"AB12345-CHN-11-id-158","AB12345","cl A.1","llt A.1.1.1.2","dcd A.1.1.1.2","hlt A.1.1.1","hlgt A.1.1","2","cl A","Y","N","trm A.1.1.1.2","MODERATE","CHN","CHN-11","id-158",28.3520663975834,"F","ARM B","B: Placebo","ARM B","B: Placebo","ASIAN",2019-06-16 19:48:46.683,2021-06-16 07:48:46.683,731,2021-06-16,"B","S2",6.91271434865216,"MEDIUM","Asia","Y","COMPLETED","COMPLETED",NA,NA,2020-12-15 19:48:46.683,548,2021-01-13 19:48:46.683,577,2020-07-06 09:35:05.946407,4,"RECOVERED/RESOLVED","Y",NA,NA,NA,NA,NA,"DOSE NOT CHANGED"
"AB12345-CHN-11-id-158","AB12345","cl B.2","llt B.2.1.2.1","dcd B.2.1.2.1","hlt B.2.1.2","hlgt B.2.1","3","cl B","N","N","trm B.2.1.2.1","MODERATE","CHN","CHN-11","id-158",28.3520663975834,"F","ARM B","B: Placebo","ARM B","B: Placebo","ASIAN",2019-06-16 19:48:46.683,2021-06-16 07:48:46.683,731,2021-06-16,"B","S2",6.91271434865216,"MEDIUM","Asia","Y","COMPLETED","COMPLETED",NA,NA,2021-03-06 19:48:46.683,629,2021-03-12 19:48:46.683,635,2021-01-08 00:38:48.780503,5,"NOT RECOVERED/NOT RESOLVED","Y",NA,NA,NA,NA,NA,"DOSE INCREASED"
"AB12345-CHN-11-id-161","AB12345","cl D.1","llt D.1.1.1.1","dcd D.1.1.1.1","hlt D.1.1.1","hlgt D.1.1","5","cl D","Y","Y","trm D.1.1.1.1","SEVERE","CHN","CHN-11","id-161",31.6606371694757,"M","ARM B","B: Placebo","ARM B","B: Placebo","ASIAN",2019-06-29 02:54:03.683,2021-06-28 14:54:03.683,731,2021-06-28,"C","S1",4.05839060381377,"MEDIUM","Asia","Y","COMPLETED","COMPLETED",NA,NA,2019-07-21 02:54:03.683,22,2020-09-25 02:54:03.683,454,2019-07-05 09:59:21.788443,1,"FATAL","Y",NA,NA,NA,NA,NA,"NOT EVALUABLE"
"AB12345-CHN-11-id-161","AB12345","cl B.2","llt B.2.1.2.1","dcd B.2.1.2.1","hlt B.2.1.2","hlgt B.2.1","3","cl B","N","N","trm B.2.1.2.1","MODERATE","CHN","CHN-11","id-161",31.6606371694757,"M","ARM B","B: Placebo","ARM B","B: Placebo","ASIAN",2019-06-29 02:54:03.683,2021-06-28 14:54:03.683,731,2021-06-28,"C","S1",4.05839060381377,"MEDIUM","Asia","Y","COMPLETED","COMPLETED",NA,NA,2019-08-14 02:54:03.683,46,2020-05-10 02:54:03.683,316,2019-07-25 20:20:08.721517,2,"RECOVERED/RESOLVED WITH SEQUELAE","Y",NA,NA,NA,NA,NA,"NOT EVALUABLE"
"AB12345-CHN-11-id-161","AB12345","cl D.1","llt D.1.1.4.2","dcd D.1.1.4.2","hlt D.1.1.4","hlgt D.1.1","3","cl D","N","N","trm D.1.1.4.2","MODERATE","CHN","CHN-11","id-161",31.6606371694757,"M","ARM B","B: Placebo","ARM B","B: Placebo","ASIAN",2019-06-29 02:54:03.683,2021-06-28 14:54:03.683,731,2021-06-28,"C","S1",4.05839060381377,"MEDIUM","Asia","Y","COMPLETED","COMPLETED",NA,NA,2019-10-22 02:54:03.683,115,2020-12-18 02:54:03.683,538,2019-07-12 03:05:26.775694,3,"UNKNOWN","Y",NA,NA,NA,NA,NA,"DOSE NOT CHANGED"
"AB12345-CHN-11-id-161","AB12345","cl A.1","llt A.1.1.1.1","dcd A.1.1.1.1","hlt A.1.1.1","hlgt A.1.1","1","cl A","N","N","trm A.1.1.1.1","MILD","CHN","CHN-11","id-161",31.6606371694757,"M","ARM B","B: Placebo","ARM B","B: Placebo","ASIAN",2019-06-29 02:54:03.683,2021-06-28 14:54:03.683,731,2021-06-28,"C","S1",4.05839060381377,"MEDIUM","Asia","Y","COMPLETED","COMPLETED",NA,NA,2020-06-05 02:54:03.683,342,2020-08-04 02:54:03.683,402,2019-08-16 13:23:12.500457,4,"RECOVERING/RESOLVING","Y","D.2.1.5.3/A.1.1.1.1 aesi",NA,NA,NA,NA,"UNKNOWN"
"AB12345-CHN-11-id-161","AB12345","cl A.1","llt A.1.1.1.1","dcd A.1.1.1.1","hlt A.1.1.1","hlgt A.1.1","1","cl A","N","N","trm A.1.1.1.1","MILD","CHN","CHN-11","id-161",31.6606371694757,"M","ARM B","B: Placebo","ARM B","B: Placebo","ASIAN",2019-06-29 02:54:03.683,2021-06-28 14:54:03.683,731,2021-06-28,"C","S1",4.05839060381377,"MEDIUM","Asia","Y","COMPLETED","COMPLETED",NA,NA,2021-03-19 02:54:03.683,629,2021-05-03 02:54:03.683,674,2020-05-05 02:37:30.664629,5,"RECOVERED/RESOLVED WITH SEQUELAE","Y","D.2.1.5.3/A.1.1.1.1 aesi",NA,NA,NA,NA,"DOSE NOT CHANGED"
"AB12345-CHN-11-id-167","AB12345","cl B.2","llt B.2.2.3.1","dcd B.2.2.3.1","hlt B.2.2.3","hlgt B.2.2","1","cl B","Y","N","trm B.2.2.3.1","MILD","CHN","CHN-11","id-167",38.4611521202375,"F","ARM B","B: Placebo","ARM B","B: Placebo","ASIAN",2019-08-28 20:37:14.683,2021-08-28 08:37:14.683,731,2021-08-28,"C","S1",2.15300615687812,"MEDIUM","Asia","Y","COMPLETED","COMPLETED",NA,NA,2019-09-09 20:37:14.683,12,2020-04-16 20:37:14.683,232,2019-09-09 11:26:50.436778,1,"NOT RECOVERED/NOT RESOLVED","Y",NA,"C.1.1.1.3/B.2.2.3.1 aesi","BROAD",NA,NA,"DOSE REDUCED"
"AB12345-CHN-11-id-167","AB12345","cl B.2","llt B.2.1.2.1","dcd B.2.1.2.1","hlt B.2.1.2","hlgt B.2.1","3","cl B","N","N","trm B.2.1.2.1","MODERATE","CHN","CHN-11","id-167",38.4611521202375,"F","ARM B","B: Placebo","ARM B","B: Placebo","ASIAN",2019-08-28 20:37:14.683,2021-08-28 08:37:14.683,731,2021-08-28,"C","S1",2.15300615687812,"MEDIUM","Asia","Y","COMPLETED","COMPLETED",NA,NA,2019-12-11 20:37:14.683,105,2020-08-03 20:37:14.683,341,2019-10-13 22:23:39.626018,2,"RECOVERED/RESOLVED","Y",NA,NA,NA,NA,NA,"DOSE NOT CHANGED"
"AB12345-CHN-11-id-167","AB12345","cl C.1","llt C.1.1.1.3","dcd C.1.1.1.3","hlt C.1.1.1","hlgt C.1.1","4","cl C","N","Y","trm C.1.1.1.3","SEVERE","CHN","CHN-11","id-167",38.4611521202375,"F","ARM B","B: Placebo","ARM B","B: Placebo","ASIAN",2019-08-28 20:37:14.683,2021-08-28 08:37:14.683,731,2021-08-28,"C","S1",2.15300615687812,"MEDIUM","Asia","Y","COMPLETED","COMPLETED",NA,NA,2020-10-21 20:37:14.683,420,2021-05-18 20:37:14.683,629,2020-01-17 14:36:05.102448,3,"RECOVERING/RESOLVING","Y",NA,"C.1.1.1.3/B.2.2.3.1 aesi","BROAD",NA,NA,"DOSE NOT CHANGED"
"AB12345-CHN-11-id-167","AB12345","cl D.1","llt D.1.1.1.1","dcd D.1.1.1.1","hlt D.1.1.1","hlgt D.1.1","5","cl D","Y","Y","trm D.1.1.1.1","SEVERE","CHN","CHN-11","id-167",38.4611521202375,"F","ARM B","B: Placebo","ARM B","B: Placebo","ASIAN",2019-08-28 20:37:14.683,2021-08-28 08:37:14.683,731,2021-08-28,"C","S1",2.15300615687812,"MEDIUM","Asia","Y","COMPLETED","COMPLETED",NA,NA,2021-01-30 20:37:14.683,521,2021-05-16 20:37:14.683,627,2019-09-01 15:23:46.403102,4,"FATAL","Y",NA,NA,NA,NA,NA,"NOT EVALUABLE"
"AB12345-CHN-11-id-167","AB12345","cl A.1","llt A.1.1.1.1","dcd A.1.1.1.1","hlt A.1.1.1","hlgt A.1.1","1","cl A","N","N","trm A.1.1.1.1","MILD","CHN","CHN-11","id-167",38.4611521202375,"F","ARM B","B: Placebo","ARM B","B: Placebo","ASIAN",2019-08-28 20:37:14.683,2021-08-28 08:37:14.683,731,2021-08-28,"C","S1",2.15300615687812,"MEDIUM","Asia","Y","COMPLETED","COMPLETED",NA,NA,2021-03-27 20:37:14.683,577,2021-07-28 20:37:14.683,700,2019-09-14 06:30:57.653106,5,"UNKNOWN","Y","D.2.1.5.3/A.1.1.1.1 aesi",NA,NA,NA,NA,"DOSE NOT CHANGED"
"AB12345-CHN-11-id-174","AB12345","cl A.1","llt A.1.1.1.1","dcd A.1.1.1.1","hlt A.1.1.1","hlgt A.1.1","1","cl A","N","N","trm A.1.1.1.1","MILD","CHN","CHN-11","id-174",44.8671909079849,"F","ARM B","B: Placebo","ARM B","B: Placebo","WHITE",2019-04-28 04:03:49.683,2021-04-27 16:03:49.683,731,2021-04-27,"A","S2",4.30303703436077,"LOW","Asia","Y","COMPLETED","COMPLETED",NA,NA,2020-01-18 04:03:49.683,265,2020-07-10 04:03:49.683,439,2019-07-22 12:19:41.705088,1,"RECOVERED/RESOLVED WITH SEQUELAE","Y","D.2.1.5.3/A.1.1.1.1 aesi",NA,NA,NA,NA,"DOSE NOT CHANGED"
"AB12345-CHN-11-id-174","AB12345","cl A.1","llt A.1.1.1.2","dcd A.1.1.1.2","hlt A.1.1.1","hlgt A.1.1","2","cl A","Y","N","trm A.1.1.1.2","MODERATE","CHN","CHN-11","id-174",44.8671909079849,"F","ARM B","B: Placebo","ARM B","B: Placebo","WHITE",2019-04-28 04:03:49.683,2021-04-27 16:03:49.683,731,2021-04-27,"A","S2",4.30303703436077,"LOW","Asia","Y","COMPLETED","COMPLETED",NA,NA,2021-04-08 04:03:49.683,711,2021-04-21 04:03:49.683,724,2019-04-30 14:41:25.448361,2,"NOT RECOVERED/NOT RESOLVED","Y",NA,NA,NA,NA,NA,"DRUG INTERRUPTED"
"AB12345-CHN-11-id-175","AB12345","cl B.2","llt B.2.2.3.1","dcd B.2.2.3.1","hlt B.2.2.3","hlgt B.2.2","1","cl B","Y","N","trm B.2.2.3.1","MILD","CHN","CHN-11","id-175",38.298020444225,"F","ARM B","B: Placebo","ARM B","B: Placebo","ASIAN",2019-11-03 18:20:42.683,2021-11-03 06:20:42.683,731,2021-11-03,"B","S1",11.3519536860554,"LOW","Asia","Y","COMPLETED","COMPLETED",NA,NA,2020-11-01 18:20:42.683,364,2021-02-13 18:20:42.683,468,2019-12-14 20:44:58.470852,1,"RECOVERED/RESOLVED WITH SEQUELAE","Y",NA,"C.1.1.1.3/B.2.2.3.1 aesi","BROAD",NA,NA,"DRUG WITHDRAWN"
"AB12345-CHN-11-id-175","AB12345","cl C.1","llt C.1.1.1.3","dcd C.1.1.1.3","hlt C.1.1.1","hlgt C.1.1","4","cl C","N","Y","trm C.1.1.1.3","SEVERE","CHN","CHN-11","id-175",38.298020444225,"F","ARM B","B: Placebo","ARM B","B: Placebo","ASIAN",2019-11-03 18:20:42.683,2021-11-03 06:20:42.683,731,2021-11-03,"B","S1",11.3519536860554,"LOW","Asia","Y","COMPLETED","COMPLETED",NA,NA,2021-09-24 18:20:42.683,691,2021-10-18 18:20:42.683,715,2021-09-06 02:03:51.514771,2,"RECOVERED/RESOLVED","Y",NA,"C.1.1.1.3/B.2.2.3.1 aesi","BROAD",NA,NA,"DOSE NOT CHANGED"
"AB12345-CHN-11-id-186","AB12345","cl C.2","llt C.2.1.2.1","dcd C.2.1.2.1","hlt C.2.1.2","hlgt C.2.1","2","cl C","N","Y","trm C.2.1.2.1","MODERATE","CHN","CHN-11","id-186",41.695402229156,"M","ARM C","C: Combination","ARM C","C: Combination","ASIAN",2020-01-20 00:12:53.683,2022-01-19 12:12:53.683,731,2022-01-19,"C","S1",4.25303886820296,"HIGH","Asia","Y","COMPLETED","COMPLETED",NA,NA,2021-06-30 00:12:53.683,527,2021-06-30 00:12:53.683,527,2020-10-31 21:19:09.295829,1,"RECOVERED/RESOLVED","Y",NA,NA,NA,NA,NA,"DOSE INCREASED"
"AB12345-CHN-11-id-192","AB12345","cl B.1","llt B.1.1.1.1","dcd B.1.1.1.1","hlt B.1.1.1","hlgt B.1.1","5","cl B","Y","Y","trm B.1.1.1.1","SEVERE","CHN","CHN-11","id-192",40.8548838951966,"F","ARM B","B: Placebo","ARM B","B: Placebo","BLACK OR AFRICAN AMERICAN",2019-03-13 09:44:24.683,2021-03-12 21:44:24.683,731,2021-03-12,"A","S1",8.92733541702847,"HIGH","Asia","Y","COMPLETED","COMPLETED",NA,NA,2019-09-03 09:44:24.683,174,2020-08-29 09:44:24.683,535,2019-06-08 01:49:10.588537,1,"FATAL","Y",NA,NA,NA,NA,NA,"NOT EVALUABLE"
"AB12345-CHN-11-id-192","AB12345","cl D.2","llt D.2.1.5.3","dcd D.2.1.5.3","hlt D.2.1.5","hlgt D.2.1","1","cl D","N","Y","trm D.2.1.5.3","MILD","CHN","CHN-11","id-192",40.8548838951966,"F","ARM B","B: Placebo","ARM B","B: Placebo","BLACK OR AFRICAN AMERICAN",2019-03-13 09:44:24.683,2021-03-12 21:44:24.683,731,2021-03-12,"A","S1",8.92733541702847,"HIGH","Asia","Y","COMPLETED","COMPLETED",NA,NA,2019-12-10 09:44:24.683,272,2020-12-12 09:44:24.683,640,2019-11-28 22:10:20.556275,2,"RECOVERING/RESOLVING","Y","D.2.1.5.3/A.1.1.1.1 aesi",NA,NA,NA,NA,"DOSE INCREASED"
"AB12345-CHN-11-id-192","AB12345","cl D.1","llt D.1.1.1.1","dcd D.1.1.1.1","hlt D.1.1.1","hlgt D.1.1","5","cl D","Y","Y","trm D.1.1.1.1","SEVERE","CHN","CHN-11","id-192",40.8548838951966,"F","ARM B","B: Placebo","ARM B","B: Placebo","BLACK OR AFRICAN AMERICAN",2019-03-13 09:44:24.683,2021-03-12 21:44:24.683,731,2021-03-12,"A","S1",8.92733541702847,"HIGH","Asia","Y","COMPLETED","COMPLETED",NA,NA,2020-02-02 09:44:24.683,326,2020-10-31 09:44:24.683,598,2019-09-05 16:54:29.36134,3,"FATAL","Y",NA,NA,NA,NA,NA,"NOT EVALUABLE"
"AB12345-CHN-11-id-192","AB12345","cl B.2","llt B.2.2.3.1","dcd B.2.2.3.1","hlt B.2.2.3","hlgt B.2.2","1","cl B","Y","N","trm B.2.2.3.1","MILD","CHN","CHN-11","id-192",40.8548838951966,"F","ARM B","B: Placebo","ARM B","B: Placebo","BLACK OR AFRICAN AMERICAN",2019-03-13 09:44:24.683,2021-03-12 21:44:24.683,731,2021-03-12,"A","S1",8.92733541702847,"HIGH","Asia","Y","COMPLETED","COMPLETED",NA,NA,2021-03-09 09:44:24.683,727,2021-03-10 09:44:24.683,728,2019-04-25 21:42:26.437474,4,"UNKNOWN","Y",NA,"C.1.1.1.3/B.2.2.3.1 aesi","BROAD",NA,NA,"NOT EVALUABLE"
"AB12345-CHN-11-id-195","AB12345","cl D.1","llt D.1.1.4.2","dcd D.1.1.4.2","hlt D.1.1.4","hlgt D.1.1","3","cl D","N","N","trm D.1.1.4.2","MODERATE","CHN","CHN-11","id-195",25.4122565480263,"M","ARM A","A: Drug X","ARM A","A: Drug X","AMERICAN INDIAN OR ALASKA NATIVE",2020-07-14 05:48:12.683,2022-07-14 17:48:12.683,731,2022-07-14,"B","S2",7.1535968593611,"HIGH","Asia","Y","COMPLETED","COMPLETED",NA,NA,2020-11-07 05:48:12.683,116,2021-11-03 05:48:12.683,477,2020-10-08 21:15:52.406365,1,"RECOVERING/RESOLVING","Y",NA,NA,NA,NA,NA,"DOSE NOT CHANGED"
"AB12345-CHN-11-id-195","AB12345","cl B.2","llt B.2.2.3.1","dcd B.2.2.3.1","hlt B.2.2.3","hlgt B.2.2","1","cl B","Y","N","trm B.2.2.3.1","MILD","CHN","CHN-11","id-195",25.4122565480263,"M","ARM A","A: Drug X","ARM A","A: Drug X","AMERICAN INDIAN OR ALASKA NATIVE",2020-07-14 05:48:12.683,2022-07-14 17:48:12.683,731,2022-07-14,"B","S2",7.1535968593611,"HIGH","Asia","Y","COMPLETED","COMPLETED",NA,NA,2020-12-25 05:48:12.683,164,2022-06-23 05:48:12.683,709,2020-09-03 08:15:13.388003,2,"NOT RECOVERED/NOT RESOLVED","Y",NA,"C.1.1.1.3/B.2.2.3.1 aesi","BROAD",NA,NA,"DOSE NOT CHANGED"
"AB12345-CHN-11-id-195","AB12345","cl B.2","llt B.2.2.3.1","dcd B.2.2.3.1","hlt B.2.2.3","hlgt B.2.2","1","cl B","Y","N","trm B.2.2.3.1","MILD","CHN","CHN-11","id-195",25.4122565480263,"M","ARM A","A: Drug X","ARM A","A: Drug X","AMERICAN INDIAN OR ALASKA NATIVE",2020-07-14 05:48:12.683,2022-07-14 17:48:12.683,731,2022-07-14,"B","S2",7.1535968593611,"HIGH","Asia","Y","COMPLETED","COMPLETED",NA,NA,2021-03-18 05:48:12.683,247,2021-08-06 05:48:12.683,388,2020-10-29 02:43:59.027305,3,"RECOVERED/RESOLVED","Y",NA,"C.1.1.1.3/B.2.2.3.1 aesi","BROAD",NA,NA,"DOSE REDUCED"
"AB12345-CHN-11-id-195","AB12345","cl A.1","llt A.1.1.1.2","dcd A.1.1.1.2","hlt A.1.1.1","hlgt A.1.1","2","cl A","Y","N","trm A.1.1.1.2","MODERATE","CHN","CHN-11","id-195",25.4122565480263,"M","ARM A","A: Drug X","ARM A","A: Drug X","AMERICAN INDIAN OR ALASKA NATIVE",2020-07-14 05:48:12.683,2022-07-14 17:48:12.683,731,2022-07-14,"B","S2",7.1535968593611,"HIGH","Asia","Y","COMPLETED","COMPLETED",NA,NA,2021-09-21 05:48:12.683,434,2021-10-06 05:48:12.683,449,2021-08-31 14:35:14.865453,4,"UNKNOWN","Y",NA,NA,NA,NA,NA,"DOSE REDUCED"
"AB12345-CHN-11-id-195","AB12345","cl B.2","llt B.2.1.2.1","dcd B.2.1.2.1","hlt B.2.1.2","hlgt B.2.1","3","cl B","N","N","trm B.2.1.2.1","MODERATE","CHN","CHN-11","id-195",25.4122565480263,"M","ARM A","A: Drug X","ARM A","A: Drug X","AMERICAN INDIAN OR ALASKA NATIVE",2020-07-14 05:48:12.683,2022-07-14 17:48:12.683,731,2022-07-14,"B","S2",7.1535968593611,"HIGH","Asia","Y","COMPLETED","COMPLETED",NA,NA,2022-06-03 05:48:12.683,689,2022-06-12 05:48:12.683,698,2021-03-18 22:20:48.501829,5,"NOT RECOVERED/NOT RESOLVED","Y",NA,NA,NA,NA,NA,"DOSE INCREASED"
"AB12345-CHN-11-id-2","AB12345","cl C.2","llt C.2.1.2.1","dcd C.2.1.2.1","hlt C.2.1.2","hlgt C.2.1","2","cl C","N","Y","trm C.2.1.2.1","MODERATE","CHN","CHN-11","id-2",39.8205720372895,"F","ARM B","B: Placebo","ARM B","B: Placebo","ASIAN",2019-07-07 04:41:42.683,2021-07-06 16:41:42.683,731,2021-07-06,"A","S2",8.60416198063975,"LOW","Asia","Y","COMPLETED","COMPLETED",NA,NA,2020-01-12 04:41:42.683,189,2020-10-13 04:41:42.683,464,2019-08-17 00:23:14.040767,1,"UNKNOWN","Y",NA,NA,NA,NA,NA,"DOSE NOT CHANGED"
"AB12345-CHN-11-id-2","AB12345","cl A.1","llt A.1.1.1.1","dcd A.1.1.1.1","hlt A.1.1.1","hlgt A.1.1","1","cl A","N","N","trm A.1.1.1.1","MILD","CHN","CHN-11","id-2",39.8205720372895,"F","ARM B","B: Placebo","ARM B","B: Placebo","ASIAN",2019-07-07 04:41:42.683,2021-07-06 16:41:42.683,731,2021-07-06,"A","S2",8.60416198063975,"LOW","Asia","Y","COMPLETED","COMPLETED",NA,NA,2020-03-09 04:41:42.683,246,2020-04-18 04:41:42.683,286,2020-02-15 01:22:15.696411,2,"RECOVERED/RESOLVED","Y","D.2.1.5.3/A.1.1.1.1 aesi",NA,NA,NA,NA,"DOSE RATE REDUCED"
"AB12345-CHN-11-id-2","AB12345","cl A.1","llt A.1.1.1.2","dcd A.1.1.1.2","hlt A.1.1.1","hlgt A.1.1","2","cl A","Y","N","trm A.1.1.1.2","MODERATE","CHN","CHN-11","id-2",39.8205720372895,"F","ARM B","B: Placebo","ARM B","B: Placebo","ASIAN",2019-07-07 04:41:42.683,2021-07-06 16:41:42.683,731,2021-07-06,"A","S2",8.60416198063975,"LOW","Asia","Y","COMPLETED","COMPLETED",NA,NA,2020-05-15 04:41:42.683,313,2020-06-05 04:41:42.683,334,2020-01-06 16:34:28.876824,3,"NOT RECOVERED/NOT RESOLVED","Y",NA,NA,NA,NA,NA,"DOSE INCREASED"
"AB12345-CHN-11-id-22","AB12345","cl B.2","llt B.2.2.3.1","dcd B.2.2.3.1","hlt B.2.2.3","hlgt B.2.2","1","cl B","Y","N","trm B.2.2.3.1","MILD","CHN","CHN-11","id-22",27.1692356487877,"M","ARM A","A: Drug X","ARM A","A: Drug X","BLACK OR AFRICAN AMERICAN",2019-10-07 22:37:23.683,2021-10-07 10:37:23.683,731,2021-10-07,"B","S1",11.9859617052611,"LOW","Asia","Y","COMPLETED","COMPLETED",NA,NA,2020-04-02 22:37:23.683,178,2021-08-17 22:37:23.683,680,2019-10-29 17:01:08.032909,1,"RECOVERING/RESOLVING","Y",NA,"C.1.1.1.3/B.2.2.3.1 aesi","BROAD",NA,NA,"DOSE REDUCED"
"AB12345-CHN-11-id-28","AB12345","cl B.1","llt B.1.1.1.1","dcd B.1.1.1.1","hlt B.1.1.1","hlgt B.1.1","5","cl B","Y","Y","trm B.1.1.1.1","SEVERE","CHN","CHN-11","id-28",32.81031827695,"F","ARM A","A: Drug X","ARM A","A: Drug X","BLACK OR AFRICAN AMERICAN",2019-08-28 17:56:25.683,2021-08-28 05:56:25.683,731,2021-08-28,"A","S2",2.30962842314469,"HIGH","Asia","Y","COMPLETED","COMPLETED",NA,NA,2020-08-13 17:56:25.683,351,2020-11-10 17:56:25.683,440,2020-07-15 21:59:37.38078,1,"FATAL","Y",NA,NA,NA,NA,NA,"NOT EVALUABLE"
"AB12345-CHN-11-id-28","AB12345","cl C.2","llt C.2.1.2.1","dcd C.2.1.2.1","hlt C.2.1.2","hlgt C.2.1","2","cl C","N","Y","trm C.2.1.2.1","MODERATE","CHN","CHN-11","id-28",32.81031827695,"F","ARM A","A: Drug X","ARM A","A: Drug X","BLACK OR AFRICAN AMERICAN",2019-08-28 17:56:25.683,2021-08-28 05:56:25.683,731,2021-08-28,"A","S2",2.30962842314469,"HIGH","Asia","Y","COMPLETED","COMPLETED",NA,NA,2020-09-19 17:56:25.683,388,2020-11-06 17:56:25.683,436,2019-10-07 09:15:51.597899,2,"RECOVERING/RESOLVING","Y",NA,NA,NA,NA,NA,"DOSE NOT CHANGED"
"AB12345-CHN-11-id-28","AB12345","cl B.1","llt B.1.1.1.1","dcd B.1.1.1.1","hlt B.1.1.1","hlgt B.1.1","5","cl B","Y","Y","trm B.1.1.1.1","SEVERE","CHN","CHN-11","id-28",32.81031827695,"F","ARM A","A: Drug X","ARM A","A: Drug X","BLACK OR AFRICAN AMERICAN",2019-08-28 17:56:25.683,2021-08-28 05:56:25.683,731,2021-08-28,"A","S2",2.30962842314469,"HIGH","Asia","Y","COMPLETED","COMPLETED",NA,NA,2021-01-08 17:56:25.683,499,2021-04-04 17:56:25.683,585,2020-05-10 22:47:34.334678,3,"FATAL","Y",NA,NA,NA,NA,NA,"NOT EVALUABLE"
"AB12345-CHN-11-id-28","AB12345","cl B.1","llt B.1.1.1.1","dcd B.1.1.1.1","hlt B.1.1.1","hlgt B.1.1","5","cl B","Y","Y","trm B.1.1.1.1","SEVERE","CHN","CHN-11","id-28",32.81031827695,"F","ARM A","A: Drug X","ARM A","A: Drug X","BLACK OR AFRICAN AMERICAN",2019-08-28 17:56:25.683,2021-08-28 05:56:25.683,731,2021-08-28,"A","S2",2.30962842314469,"HIGH","Asia","Y","COMPLETED","COMPLETED",NA,NA,2021-03-13 17:56:25.683,563,2021-04-01 17:56:25.683,582,2021-01-11 07:34:23.497246,4,"FATAL","Y",NA,NA,NA,NA,NA,"NOT EVALUABLE"
"AB12345-CHN-11-id-28","AB12345","cl A.1","llt A.1.1.1.1","dcd A.1.1.1.1","hlt A.1.1.1","hlgt A.1.1","1","cl A","N","N","trm A.1.1.1.1","MILD","CHN","CHN-11","id-28",32.81031827695,"F","ARM A","A: Drug X","ARM A","A: Drug X","BLACK OR AFRICAN AMERICAN",2019-08-28 17:56:25.683,2021-08-28 05:56:25.683,731,2021-08-28,"A","S2",2.30962842314469,"HIGH","Asia","Y","COMPLETED","COMPLETED",NA,NA,2021-05-18 17:56:25.683,629,2021-08-04 17:56:25.683,707,2019-11-20 06:24:50.191558,5,"NOT RECOVERED/NOT RESOLVED","Y","D.2.1.5.3/A.1.1.1.1 aesi",NA,NA,NA,NA,"UNKNOWN"
"AB12345-CHN-11-id-48","AB12345","cl D.1","llt D.1.1.1.1","dcd D.1.1.1.1","hlt D.1.1.1","hlgt D.1.1","5","cl D","Y","Y","trm D.1.1.1.1","SEVERE","CHN","CHN-11","id-48",39.5302741971582,"M","ARM B","B: Placebo","ARM B","B: Placebo","ASIAN",2019-06-19 16:45:39.683,2021-06-19 04:45:39.683,731,2021-06-19,"A","S2",11.9806198529165,"HIGH","Asia","Y","COMPLETED","COMPLETED",NA,NA,2019-07-13 16:45:39.683,24,2019-10-06 16:45:39.683,109,2019-07-08 15:19:19.902445,1,"FATAL","Y",NA,NA,NA,NA,NA,"NOT EVALUABLE"
"AB12345-CHN-11-id-48","AB12345","cl D.1","llt D.1.1.4.2","dcd D.1.1.4.2","hlt D.1.1.4","hlgt D.1.1","3","cl D","N","N","trm D.1.1.4.2","MODERATE","CHN","CHN-11","id-48",39.5302741971582,"M","ARM B","B: Placebo","ARM B","B: Placebo","ASIAN",2019-06-19 16:45:39.683,2021-06-19 04:45:39.683,731,2021-06-19,"A","S2",11.9806198529165,"HIGH","Asia","Y","COMPLETED","COMPLETED",NA,NA,2020-03-24 16:45:39.683,279,2020-07-19 16:45:39.683,396,2019-07-16 09:53:14.030438,2,"RECOVERED/RESOLVED WITH SEQUELAE","Y",NA,NA,NA,NA,NA,"DOSE NOT CHANGED"
"AB12345-CHN-11-id-56","AB12345","cl D.2","llt D.2.1.5.3","dcd D.2.1.5.3","hlt D.2.1.5","hlgt D.2.1","1","cl D","N","Y","trm D.2.1.5.3","MILD","CHN","CHN-11","id-56",29.7235019932162,"M","ARM A","A: Drug X","ARM A","A: Drug X","ASIAN",2019-03-11 03:15:21.683,2021-03-10 15:15:21.683,731,2021-03-10,"A","S2",7.17631863123282,"MEDIUM","Asia","Y","COMPLETED","COMPLETED",NA,NA,2020-01-22 03:15:21.683,317,2020-12-25 03:15:21.683,655,2019-09-16 03:04:58.289258,1,"RECOVERED/RESOLVED","Y","D.2.1.5.3/A.1.1.1.1 aesi",NA,NA,NA,NA,"NOT EVALUABLE"
"AB12345-CHN-11-id-56","AB12345","cl A.1","llt A.1.1.1.1","dcd A.1.1.1.1","hlt A.1.1.1","hlgt A.1.1","1","cl A","N","N","trm A.1.1.1.1","MILD","CHN","CHN-11","id-56",29.7235019932162,"M","ARM A","A: Drug X","ARM A","A: Drug X","ASIAN",2019-03-11 03:15:21.683,2021-03-10 15:15:21.683,731,2021-03-10,"A","S2",7.17631863123282,"MEDIUM","Asia","Y","COMPLETED","COMPLETED",NA,NA,2020-09-11 03:15:21.683,550,2020-11-22 03:15:21.683,622,2019-12-31 08:36:10.649806,2,"UNKNOWN","Y","D.2.1.5.3/A.1.1.1.1 aesi",NA,NA,NA,NA,"UNKNOWN"
"AB12345-CHN-11-id-56","AB12345","cl B.2","llt B.2.1.2.1","dcd B.2.1.2.1","hlt B.2.1.2","hlgt B.2.1","3","cl B","N","N","trm B.2.1.2.1","MODERATE","CHN","CHN-11","id-56",29.7235019932162,"M","ARM A","A: Drug X","ARM A","A: Drug X","ASIAN",2019-03-11 03:15:21.683,2021-03-10 15:15:21.683,731,2021-03-10,"A","S2",7.17631863123282,"MEDIUM","Asia","Y","COMPLETED","COMPLETED",NA,NA,2020-09-29 03:15:21.683,568,2021-02-15 03:15:21.683,707,2020-07-08 12:14:00.087144,3,"RECOVERING/RESOLVING","Y",NA,NA,NA,NA,NA,"DOSE NOT CHANGED"
"AB12345-CHN-11-id-57","AB12345","cl D.1","llt D.1.1.4.2","dcd D.1.1.4.2","hlt D.1.1.4","hlgt D.1.1","3","cl D","N","N","trm D.1.1.4.2","MODERATE","CHN","CHN-11","id-57",32.2284142345913,"M","ARM B","B: Placebo","ARM B","B: Placebo","WHITE",2019-11-07 22:21:51.683,2021-11-07 10:21:51.683,731,2021-11-07,"A","S1",3.86721812541852,"MEDIUM","Asia","Y","COMPLETED","COMPLETED",NA,NA,2020-01-03 22:21:51.683,57,2021-04-20 22:21:51.683,530,2019-12-27 03:01:21.170356,1,"RECOVERING/RESOLVING","Y",NA,NA,NA,NA,NA,"DOSE NOT CHANGED"
"AB12345-CHN-11-id-57","AB12345","cl D.1","llt D.1.1.4.2","dcd D.1.1.4.2","hlt D.1.1.4","hlgt D.1.1","3","cl D","N","N","trm D.1.1.4.2","MODERATE","CHN","CHN-11","id-57",32.2284142345913,"M","ARM B","B: Placebo","ARM B","B: Placebo","WHITE",2019-11-07 22:21:51.683,2021-11-07 10:21:51.683,731,2021-11-07,"A","S1",3.86721812541852,"MEDIUM","Asia","Y","COMPLETED","COMPLETED",NA,NA,2020-10-20 22:21:51.683,348,2021-09-02 22:21:51.683,665,2019-11-28 11:54:41.249331,2,"NOT RECOVERED/NOT RESOLVED","Y",NA,NA,NA,NA,NA,"DOSE NOT CHANGED"
"AB12345-CHN-11-id-57","AB12345","cl D.1","llt D.1.1.4.2","dcd D.1.1.4.2","hlt D.1.1.4","hlgt D.1.1","3","cl D","N","N","trm D.1.1.4.2","MODERATE","CHN","CHN-11","id-57",32.2284142345913,"M","ARM B","B: Placebo","ARM B","B: Placebo","WHITE",2019-11-07 22:21:51.683,2021-11-07 10:21:51.683,731,2021-11-07,"A","S1",3.86721812541852,"MEDIUM","Asia","Y","COMPLETED","COMPLETED",NA,NA,2021-05-26 22:21:51.683,566,2021-07-22 22:21:51.683,623,2021-03-12 21:38:40.714233,3,"RECOVERING/RESOLVING","Y",NA,NA,NA,NA,NA,"DOSE NOT CHANGED"
"AB12345-CHN-11-id-67","AB12345","cl B.2","llt B.2.1.2.1","dcd B.2.1.2.1","hlt B.2.1.2","hlgt B.2.1","3","cl B","N","N","trm B.2.1.2.1","MODERATE","CHN","CHN-11","id-67",26.1047015032967,"M","ARM A","A: Drug X","ARM A","A: Drug X","ASIAN",2020-02-26 02:12:55.683,2022-02-25 14:12:55.683,731,2022-02-25,"C","S2",7.10821349539918,"LOW","Asia","Y","COMPLETED","COMPLETED",NA,NA,2020-12-27 02:12:55.683,305,2021-03-30 02:12:55.683,398,2020-10-01 23:54:56.636798,1,"RECOVERING/RESOLVING","Y",NA,NA,NA,NA,NA,"DRUG WITHDRAWN"
"AB12345-CHN-11-id-67","AB12345","cl B.2","llt B.2.2.3.1","dcd B.2.2.3.1","hlt B.2.2.3","hlgt B.2.2","1","cl B","Y","N","trm B.2.2.3.1","MILD","CHN","CHN-11","id-67",26.1047015032967,"M","ARM A","A: Drug X","ARM A","A: Drug X","ASIAN",2020-02-26 02:12:55.683,2022-02-25 14:12:55.683,731,2022-02-25,"C","S2",7.10821349539918,"LOW","Asia","Y","COMPLETED","COMPLETED",NA,NA,2021-06-26 02:12:55.683,486,2021-06-29 02:12:55.683,489,2020-10-15 23:53:33.61172,2,"RECOVERED/RESOLVED","Y",NA,"C.1.1.1.3/B.2.2.3.1 aesi","BROAD",NA,NA,"DOSE INCREASED"
"AB12345-CHN-11-id-67","AB12345","cl B.2","llt B.2.2.3.1","dcd B.2.2.3.1","hlt B.2.2.3","hlgt B.2.2","1","cl B","Y","N","trm B.2.2.3.1","MILD","CHN","CHN-11","id-67",26.1047015032967,"M","ARM A","A: Drug X","ARM A","A: Drug X","ASIAN",2020-02-26 02:12:55.683,2022-02-25 14:12:55.683,731,2022-02-25,"C","S2",7.10821349539918,"LOW","Asia","Y","COMPLETED","COMPLETED",NA,NA,2022-01-31 02:12:55.683,705,2022-02-17 02:12:55.683,722,2020-05-03 04:24:18.324171,3,"RECOVERING/RESOLVING","Y",NA,"C.1.1.1.3/B.2.2.3.1 aesi","BROAD",NA,NA,"DOSE NOT CHANGED"
"AB12345-CHN-11-id-71","AB12345","cl A.1","llt A.1.1.1.2","dcd A.1.1.1.2","hlt A.1.1.1","hlgt A.1.1","2","cl A","Y","N","trm A.1.1.1.2","MODERATE","CHN","CHN-11","id-71",40.3737453371423,"M","ARM C","C: Combination","ARM C","C: Combination","BLACK OR AFRICAN AMERICAN",2019-11-01 01:27:23.683,2021-10-31 13:27:23.683,731,2021-10-31,"B","S1",7.58423154078951,"MEDIUM","Asia","Y","COMPLETED","COMPLETED",NA,NA,2020-04-13 01:27:23.683,164,2020-05-11 01:27:23.683,192,2019-11-18 10:09:17.818361,1,"NOT RECOVERED/NOT RESOLVED","Y",NA,NA,NA,NA,NA,"UNKNOWN"
"AB12345-CHN-11-id-71","AB12345","cl D.1","llt D.1.1.4.2","dcd D.1.1.4.2","hlt D.1.1.4","hlgt D.1.1","3","cl D","N","N","trm D.1.1.4.2","MODERATE","CHN","CHN-11","id-71",40.3737453371423,"M","ARM C","C: Combination","ARM C","C: Combination","BLACK OR AFRICAN AMERICAN",2019-11-01 01:27:23.683,2021-10-31 13:27:23.683,731,2021-10-31,"B","S1",7.58423154078951,"MEDIUM","Asia","Y","COMPLETED","COMPLETED",NA,NA,2020-12-20 01:27:23.683,415,2021-01-02 01:27:23.683,428,2020-03-21 19:44:20.257591,2,"RECOVERING/RESOLVING","Y",NA,NA,NA,NA,NA,"DOSE NOT CHANGED"
"AB12345-CHN-11-id-74","AB12345","cl B.2","llt B.2.2.3.1","dcd B.2.2.3.1","hlt B.2.2.3","hlgt B.2.2","1","cl B","Y","N","trm B.2.2.3.1","MILD","CHN","CHN-11","id-74",42.6761006292867,"F","ARM C","C: Combination","ARM C","C: Combination","BLACK OR AFRICAN AMERICAN",2019-03-08 01:54:50.683,2021-03-07 13:54:50.683,731,2021-03-07,"C","S2",3.7474131752739,"MEDIUM","Asia","Y","COMPLETED","COMPLETED",NA,NA,2019-05-30 01:54:50.683,83,2020-01-01 01:54:50.683,299,2019-04-03 20:01:23.728585,1,"RECOVERED/RESOLVED","Y",NA,"C.1.1.1.3/B.2.2.3.1 aesi","BROAD",NA,NA,"DRUG INTERRUPTED"
"AB12345-CHN-11-id-74","AB12345","cl C.2","llt C.2.1.2.1","dcd C.2.1.2.1","hlt C.2.1.2","hlgt C.2.1","2","cl C","N","Y","trm C.2.1.2.1","MODERATE","CHN","CHN-11","id-74",42.6761006292867,"F","ARM C","C: Combination","ARM C","C: Combination","BLACK OR AFRICAN AMERICAN",2019-03-08 01:54:50.683,2021-03-07 13:54:50.683,731,2021-03-07,"C","S2",3.7474131752739,"MEDIUM","Asia","Y","COMPLETED","COMPLETED",NA,NA,2020-02-01 01:54:50.683,330,2021-01-17 01:54:50.683,681,2019-08-08 21:52:54.409816,2,"RECOVERED/RESOLVED","Y",NA,NA,NA,NA,NA,"DOSE NOT CHANGED"
"AB12345-CHN-11-id-74","AB12345","cl B.2","llt B.2.2.3.1","dcd B.2.2.3.1","hlt B.2.2.3","hlgt B.2.2","1","cl B","Y","N","trm B.2.2.3.1","MILD","CHN","CHN-11","id-74",42.6761006292867,"F","ARM C","C: Combination","ARM C","C: Combination","BLACK OR AFRICAN AMERICAN",2019-03-08 01:54:50.683,2021-03-07 13:54:50.683,731,2021-03-07,"C","S2",3.7474131752739,"MEDIUM","Asia","Y","COMPLETED","COMPLETED",NA,NA,2020-02-24 01:54:50.683,353,2020-11-10 01:54:50.683,613,2019-09-16 07:10:20.977243,3,"RECOVERED/RESOLVED","Y",NA,"C.1.1.1.3/B.2.2.3.1 aesi","BROAD",NA,NA,"DRUG WITHDRAWN"
"AB12345-CHN-11-id-78","AB12345","cl D.1","llt D.1.1.4.2","dcd D.1.1.4.2","hlt D.1.1.4","hlgt D.1.1","3","cl D","N","N","trm D.1.1.4.2","MODERATE","CHN","CHN-11","id-78",46.6896483005854,"M","ARM A","A: Drug X","ARM A","A: Drug X","BLACK OR AFRICAN AMERICAN",2019-05-30 10:09:19.683,2021-05-29 22:09:19.683,731,2021-05-29,"B","S2",3.38982827024392,"LOW","Asia","Y","COMPLETED","COMPLETED",NA,NA,2020-03-06 10:09:19.683,281,2021-03-14 10:09:19.683,654,2020-01-30 23:38:33.763414,1,"NOT RECOVERED/NOT RESOLVED","Y",NA,NA,NA,NA,NA,"DOSE NOT CHANGED"
"AB12345-CHN-11-id-78","AB12345","cl A.1","llt A.1.1.1.1","dcd A.1.1.1.1","hlt A.1.1.1","hlgt A.1.1","1","cl A","N","N","trm A.1.1.1.1","MILD","CHN","CHN-11","id-78",46.6896483005854,"M","ARM A","A: Drug X","ARM A","A: Drug X","BLACK OR AFRICAN AMERICAN",2019-05-30 10:09:19.683,2021-05-29 22:09:19.683,731,2021-05-29,"B","S2",3.38982827024392,"LOW","Asia","Y","COMPLETED","COMPLETED",NA,NA,2020-06-19 10:09:19.683,386,2020-08-04 10:09:19.683,432,2019-12-24 18:45:54.69215,2,"NOT RECOVERED/NOT RESOLVED","Y","D.2.1.5.3/A.1.1.1.1 aesi",NA,NA,NA,NA,"UNKNOWN"
"AB12345-CHN-11-id-78","AB12345","cl C.2","llt C.2.1.2.1","dcd C.2.1.2.1","hlt C.2.1.2","hlgt C.2.1","2","cl C","N","Y","trm C.2.1.2.1","MODERATE","CHN","CHN-11","id-78",46.6896483005854,"M","ARM A","A: Drug X","ARM A","A: Drug X","BLACK OR AFRICAN AMERICAN",2019-05-30 10:09:19.683,2021-05-29 22:09:19.683,731,2021-05-29,"B","S2",3.38982827024392,"LOW","Asia","Y","COMPLETED","COMPLETED",NA,NA,2020-10-10 10:09:19.683,499,2021-05-10 10:09:19.683,711,2020-06-17 08:48:29.685529,3,"NOT RECOVERED/NOT RESOLVED","Y",NA,NA,NA,NA,NA,"DOSE NOT CHANGED"
"AB12345-CHN-11-id-81","AB12345","cl C.2","llt C.2.1.2.1","dcd C.2.1.2.1","hlt C.2.1.2","hlgt C.2.1","2","cl C","N","Y","trm C.2.1.2.1","MODERATE","CHN","CHN-11","id-81",30.9063716762582,"M","ARM B","B: Placebo","ARM B","B: Placebo","ASIAN",2019-07-03 00:20:58.683,2021-07-02 12:20:58.683,731,2021-07-02,"C","S2",4.1896922037128,"HIGH","Asia","Y","COMPLETED","COMPLETED",NA,NA,2019-11-09 00:20:58.683,129,2020-01-19 00:20:58.683,200,2019-07-18 09:27:30.214672,1,"RECOVERING/RESOLVING","Y",NA,NA,NA,NA,NA,"DOSE NOT CHANGED"
"AB12345-CHN-11-id-81","AB12345","cl A.1","llt A.1.1.1.2","dcd A.1.1.1.2","hlt A.1.1.1","hlgt A.1.1","2","cl A","Y","N","trm A.1.1.1.2","MODERATE","CHN","CHN-11","id-81",30.9063716762582,"M","ARM B","B: Placebo","ARM B","B: Placebo","ASIAN",2019-07-03 00:20:58.683,2021-07-02 12:20:58.683,731,2021-07-02,"C","S2",4.1896922037128,"HIGH","Asia","Y","COMPLETED","COMPLETED",NA,NA,2019-12-23 00:20:58.683,173,2020-04-20 00:20:58.683,292,2019-08-03 04:15:52.537554,2,"RECOVERING/RESOLVING","Y",NA,NA,NA,NA,NA,"DOSE NOT CHANGED"
"AB12345-CHN-11-id-81","AB12345","cl B.1","llt B.1.1.1.1","dcd B.1.1.1.1","hlt B.1.1.1","hlgt B.1.1","5","cl B","Y","Y","trm B.1.1.1.1","SEVERE","CHN","CHN-11","id-81",30.9063716762582,"M","ARM B","B: Placebo","ARM B","B: Placebo","ASIAN",2019-07-03 00:20:58.683,2021-07-02 12:20:58.683,731,2021-07-02,"C","S2",4.1896922037128,"HIGH","Asia","Y","COMPLETED","COMPLETED",NA,NA,2020-01-28 00:20:58.683,209,2020-03-08 00:20:58.683,249,2019-08-30 23:43:09.57334,3,"FATAL","Y",NA,NA,NA,NA,NA,"NOT EVALUABLE"
"AB12345-CHN-11-id-81","AB12345","cl A.1","llt A.1.1.1.1","dcd A.1.1.1.1","hlt A.1.1.1","hlgt A.1.1","1","cl A","N","N","trm A.1.1.1.1","MILD","CHN","CHN-11","id-81",30.9063716762582,"M","ARM B","B: Placebo","ARM B","B: Placebo","ASIAN",2019-07-03 00:20:58.683,2021-07-02 12:20:58.683,731,2021-07-02,"C","S2",4.1896922037128,"HIGH","Asia","Y","COMPLETED","COMPLETED",NA,NA,2021-03-25 00:20:58.683,631,2021-04-02 00:20:58.683,639,2019-11-18 20:59:15.710546,4,"UNKNOWN","Y","D.2.1.5.3/A.1.1.1.1 aesi",NA,NA,NA,NA,"DOSE NOT CHANGED"
"AB12345-CHN-11-id-81","AB12345","cl B.2","llt B.2.2.3.1","dcd B.2.2.3.1","hlt B.2.2.3","hlgt B.2.2","1","cl B","Y","N","trm B.2.2.3.1","MILD","CHN","CHN-11","id-81",30.9063716762582,"M","ARM B","B: Placebo","ARM B","B: Placebo","ASIAN",2019-07-03 00:20:58.683,2021-07-02 12:20:58.683,731,2021-07-02,"C","S2",4.1896922037128,"HIGH","Asia","Y","COMPLETED","COMPLETED",NA,NA,2021-06-27 00:20:58.683,725,2021-07-02 00:20:58.683,730,2020-01-25 05:44:04.877366,5,"RECOVERED/RESOLVED","Y",NA,"C.1.1.1.3/B.2.2.3.1 aesi","BROAD",NA,NA,"DOSE NOT CHANGED"
"AB12345-CHN-11-id-86","AB12345","cl B.1","llt B.1.1.1.1","dcd B.1.1.1.1","hlt B.1.1.1","hlgt B.1.1","5","cl B","Y","Y","trm B.1.1.1.1","SEVERE","CHN","CHN-11","id-86",46.861121739172,"M","ARM C","C: Combination","ARM C","C: Combination","WHITE",2019-07-21 12:41:41.683,2021-07-21 00:41:41.683,731,2021-07-21,"A","S1",3.70213197979714,"HIGH","Asia","Y","COMPLETED","COMPLETED",NA,NA,2021-05-26 12:41:41.683,675,2021-05-30 12:41:41.683,679,2019-10-31 17:15:07.430526,1,"FATAL","Y",NA,NA,NA,NA,NA,"NOT EVALUABLE"
"AB12345-CHN-11-id-86","AB12345","cl B.1","llt B.1.1.1.1","dcd B.1.1.1.1","hlt B.1.1.1","hlgt B.1.1","5","cl B","Y","Y","trm B.1.1.1.1","SEVERE","CHN","CHN-11","id-86",46.861121739172,"M","ARM C","C: Combination","ARM C","C: Combination","WHITE",2019-07-21 12:41:41.683,2021-07-21 00:41:41.683,731,2021-07-21,"A","S1",3.70213197979714,"HIGH","Asia","Y","COMPLETED","COMPLETED",NA,NA,2021-06-28 12:41:41.683,708,2021-07-06 12:41:41.683,716,2020-08-13 03:15:37.242803,2,"FATAL","Y",NA,NA,NA,NA,NA,"NOT EVALUABLE"
"AB12345-CHN-11-id-88","AB12345","cl A.1","llt A.1.1.1.1","dcd A.1.1.1.1","hlt A.1.1.1","hlgt A.1.1","1","cl A","N","N","trm A.1.1.1.1","MILD","CHN","CHN-11","id-88",29.5911025146013,"F","ARM B","B: Placebo","ARM B","B: Placebo","ASIAN",2020-12-31 22:26:39.683,2023-01-01 10:26:39.683,731,2023-01-01,"B","S2",3.35737476440306,"HIGH","Asia","Y","COMPLETED","COMPLETED",NA,NA,2021-01-26 22:26:39.683,26,2022-04-21 22:26:39.683,476,2021-01-09 00:14:12.960047,1,"RECOVERED/RESOLVED","Y","D.2.1.5.3/A.1.1.1.1 aesi",NA,NA,NA,NA,"DRUG WITHDRAWN"
"AB12345-CHN-11-id-88","AB12345","cl B.2","llt B.2.1.2.1","dcd B.2.1.2.1","hlt B.2.1.2","hlgt B.2.1","3","cl B","N","N","trm B.2.1.2.1","MODERATE","CHN","CHN-11","id-88",29.5911025146013,"F","ARM B","B: Placebo","ARM B","B: Placebo","ASIAN",2020-12-31 22:26:39.683,2023-01-01 10:26:39.683,731,2023-01-01,"B","S2",3.35737476440306,"HIGH","Asia","Y","COMPLETED","COMPLETED",NA,NA,2022-04-23 22:26:39.683,478,2022-08-06 22:26:39.683,583,2021-09-02 01:28:33.897991,2,"UNKNOWN","Y",NA,NA,NA,NA,NA,"DOSE NOT CHANGED"
"AB12345-CHN-11-id-88","AB12345","cl D.1","llt D.1.1.1.1","dcd D.1.1.1.1","hlt D.1.1.1","hlgt D.1.1","5","cl D","Y","Y","trm D.1.1.1.1","SEVERE","CHN","CHN-11","id-88",29.5911025146013,"F","ARM B","B: Placebo","ARM B","B: Placebo","ASIAN",2020-12-31 22:26:39.683,2023-01-01 10:26:39.683,731,2023-01-01,"B","S2",3.35737476440306,"HIGH","Asia","Y","COMPLETED","COMPLETED",NA,NA,2022-09-08 22:26:39.683,616,2022-11-10 22:26:39.683,679,2022-02-25 15:35:15.252818,3,"FATAL","Y",NA,NA,NA,NA,NA,"NOT EVALUABLE"
"AB12345-CHN-11-id-89","AB12345","cl D.2","llt D.2.1.5.3","dcd D.2.1.5.3","hlt D.2.1.5","hlgt D.2.1","1","cl D","N","Y","trm D.2.1.5.3","MILD","CHN","CHN-11","id-89",35.3802724759131,"F","ARM B","B: Placebo","ARM B","B: Placebo","AMERICAN INDIAN OR ALASKA NATIVE",2020-07-18 01:49:46.683,2022-07-18 13:49:46.683,731,2022-07-18,"B","S2",5.10200494584053,"LOW","Asia","Y","COMPLETED","COMPLETED",NA,NA,2020-09-01 01:49:46.683,45,2021-03-06 01:49:46.683,231,2020-08-29 22:32:58.442321,1,"RECOVERING/RESOLVING","Y","D.2.1.5.3/A.1.1.1.1 aesi",NA,NA,NA,NA,"DOSE NOT CHANGED"
"AB12345-CHN-11-id-89","AB12345","cl B.1","llt B.1.1.1.1","dcd B.1.1.1.1","hlt B.1.1.1","hlgt B.1.1","5","cl B","Y","Y","trm B.1.1.1.1","SEVERE","CHN","CHN-11","id-89",35.3802724759131,"F","ARM B","B: Placebo","ARM B","B: Placebo","AMERICAN INDIAN OR ALASKA NATIVE",2020-07-18 01:49:46.683,2022-07-18 13:49:46.683,731,2022-07-18,"B","S2",5.10200494584053,"LOW","Asia","Y","COMPLETED","COMPLETED",NA,NA,2021-06-25 01:49:46.683,342,2022-05-07 01:49:46.683,658,2020-11-19 02:10:12.0257,2,"FATAL","Y",NA,NA,NA,NA,NA,"NOT EVALUABLE"
"AB12345-CHN-11-id-89","AB12345","cl B.2","llt B.2.2.3.1","dcd B.2.2.3.1","hlt B.2.2.3","hlgt B.2.2","1","cl B","Y","N","trm B.2.2.3.1","MILD","CHN","CHN-11","id-89",35.3802724759131,"F","ARM B","B: Placebo","ARM B","B: Placebo","AMERICAN INDIAN OR ALASKA NATIVE",2020-07-18 01:49:46.683,2022-07-18 13:49:46.683,731,2022-07-18,"B","S2",5.10200494584053,"LOW","Asia","Y","COMPLETED","COMPLETED",NA,NA,2021-07-04 01:49:46.683,351,2022-03-27 01:49:46.683,617,2021-04-06 18:41:12.061967,3,"RECOVERED/RESOLVED WITH SEQUELAE","Y",NA,"C.1.1.1.3/B.2.2.3.1 aesi","BROAD",NA,NA,"DOSE NOT CHANGED"
"AB12345-CHN-11-id-89","AB12345","cl D.1","llt D.1.1.4.2","dcd D.1.1.4.2","hlt D.1.1.4","hlgt D.1.1","3","cl D","N","N","trm D.1.1.4.2","MODERATE","CHN","CHN-11","id-89",35.3802724759131,"F","ARM B","B: Placebo","ARM B","B: Placebo","AMERICAN INDIAN OR ALASKA NATIVE",2020-07-18 01:49:46.683,2022-07-18 13:49:46.683,731,2022-07-18,"B","S2",5.10200494584053,"LOW","Asia","Y","COMPLETED","COMPLETED",NA,NA,2021-10-28 01:49:46.683,467,2022-05-09 01:49:46.683,660,2020-12-26 19:05:15.055306,4,"RECOVERING/RESOLVING","Y",NA,NA,NA,NA,NA,"DOSE NOT CHANGED"
"AB12345-CHN-11-id-90","AB12345","cl B.1","llt B.1.1.1.1","dcd B.1.1.1.1","hlt B.1.1.1","hlgt B.1.1","5","cl B","Y","Y","trm B.1.1.1.1","SEVERE","CHN","CHN-11","id-90",40.806290512015,"F","ARM A","A: Drug X","ARM A","A: Drug X","ASIAN",2021-01-29 00:31:14.683,2023-01-29 12:31:14.683,731,2023-01-29,"B","S1",0.445954562850486,"HIGH","Asia","Y","COMPLETED","COMPLETED",NA,NA,2021-08-13 00:31:14.683,196,2021-11-01 00:31:14.683,276,2021-06-09 02:06:27.498765,1,"FATAL","Y",NA,NA,NA,NA,NA,"NOT EVALUABLE"
"AB12345-CHN-11-id-90","AB12345","cl B.2","llt B.2.2.3.1","dcd B.2.2.3.1","hlt B.2.2.3","hlgt B.2.2","1","cl B","Y","N","trm B.2.2.3.1","MILD","CHN","CHN-11","id-90",40.806290512015,"F","ARM A","A: Drug X","ARM A","A: Drug X","ASIAN",2021-01-29 00:31:14.683,2023-01-29 12:31:14.683,731,2023-01-29,"B","S1",0.445954562850486,"HIGH","Asia","Y","COMPLETED","COMPLETED",NA,NA,2022-04-27 00:31:14.683,453,2022-09-17 00:31:14.683,596,2021-08-22 18:54:46.44044,2,"RECOVERED/RESOLVED WITH SEQUELAE","Y",NA,"C.1.1.1.3/B.2.2.3.1 aesi","BROAD",NA,NA,"DOSE INCREASED"
"AB12345-CHN-11-id-90","AB12345","cl D.1","llt D.1.1.4.2","dcd D.1.1.4.2","hlt D.1.1.4","hlgt D.1.1","3","cl D","N","N","trm D.1.1.4.2","MODERATE","CHN","CHN-11","id-90",40.806290512015,"F","ARM A","A: Drug X","ARM A","A: Drug X","ASIAN",2021-01-29 00:31:14.683,2023-01-29 12:31:14.683,731,2023-01-29,"B","S1",0.445954562850486,"HIGH","Asia","Y","COMPLETED","COMPLETED",NA,NA,2022-11-17 00:31:14.683,657,2023-01-08 00:31:14.683,709,2021-01-30 21:00:18.852994,3,"RECOVERING/RESOLVING","Y",NA,NA,NA,NA,NA,"DOSE REDUCED"
"AB12345-CHN-11-id-90","AB12345","cl B.2","llt B.2.1.2.1","dcd B.2.1.2.1","hlt B.2.1.2","hlgt B.2.1","3","cl B","N","N","trm B.2.1.2.1","MODERATE","CHN","CHN-11","id-90",40.806290512015,"F","ARM A","A: Drug X","ARM A","A: Drug X","ASIAN",2021-01-29 00:31:14.683,2023-01-29 12:31:14.683,731,2023-01-29,"B","S1",0.445954562850486,"HIGH","Asia","Y","COMPLETED","COMPLETED",NA,NA,2023-01-21 00:31:14.683,722,2023-01-28 00:31:14.683,729,2022-02-15 00:37:21.193102,4,"RECOVERED/RESOLVED WITH SEQUELAE","Y",NA,NA,NA,NA,NA,"DOSE NOT CHANGED"
"AB12345-CHN-11-id-91","AB12345","cl B.1","llt B.1.1.1.1","dcd B.1.1.1.1","hlt B.1.1.1","hlgt B.1.1","5","cl B","Y","Y","trm B.1.1.1.1","SEVERE","CHN","CHN-11","id-91",58.3461386184987,"M","ARM C","C: Combination","ARM C","C: Combination","BLACK OR AFRICAN AMERICAN",2020-08-09 09:22:49.683,2022-08-09 21:22:49.683,731,2022-08-09,"C","S1",5.28516459927508,"HIGH","Asia","Y","COMPLETED","COMPLETED",NA,NA,2021-03-22 09:22:49.683,225,2022-07-12 09:22:49.683,702,2021-02-19 07:29:47.717694,1,"FATAL","Y",NA,NA,NA,NA,NA,"NOT EVALUABLE"
"AB12345-CHN-11-id-91","AB12345","cl B.2","llt B.2.1.2.1","dcd B.2.1.2.1","hlt B.2.1.2","hlgt B.2.1","3","cl B","N","N","trm B.2.1.2.1","MODERATE","CHN","CHN-11","id-91",58.3461386184987,"M","ARM C","C: Combination","ARM C","C: Combination","BLACK OR AFRICAN AMERICAN",2020-08-09 09:22:49.683,2022-08-09 21:22:49.683,731,2022-08-09,"C","S1",5.28516459927508,"HIGH","Asia","Y","COMPLETED","COMPLETED",NA,NA,2021-08-12 09:22:49.683,368,2022-06-16 09:22:49.683,676,2021-03-02 07:47:40.943254,2,"RECOVERED/RESOLVED WITH SEQUELAE","Y",NA,NA,NA,NA,NA,"DOSE NOT CHANGED"
"AB12345-CHN-11-id-92","AB12345","cl D.1","llt D.1.1.4.2","dcd D.1.1.4.2","hlt D.1.1.4","hlgt D.1.1","3","cl D","N","N","trm D.1.1.4.2","MODERATE","CHN","CHN-11","id-92",29.3564978753408,"F","ARM C","C: Combination","ARM C","C: Combination","WHITE",2019-06-22 11:41:37.683,2021-06-21 23:41:37.683,731,2021-06-21,"C","S1",10.8216621973404,"HIGH","Asia","Y","COMPLETED","COMPLETED",NA,NA,2019-09-19 11:41:37.683,89,2020-11-17 11:41:37.683,514,2019-09-15 01:35:24.260678,1,"RECOVERED/RESOLVED","Y",NA,NA,NA,NA,NA,"DOSE NOT CHANGED"
"AB12345-CHN-11-id-92","AB12345","cl D.1","llt D.1.1.4.2","dcd D.1.1.4.2","hlt D.1.1.4","hlgt D.1.1","3","cl D","N","N","trm D.1.1.4.2","MODERATE","CHN","CHN-11","id-92",29.3564978753408,"F","ARM C","C: Combination","ARM C","C: Combination","WHITE",2019-06-22 11:41:37.683,2021-06-21 23:41:37.683,731,2021-06-21,"C","S1",10.8216621973404,"HIGH","Asia","Y","COMPLETED","COMPLETED",NA,NA,2020-05-27 11:41:37.683,340,2020-07-07 11:41:37.683,381,2020-04-24 03:21:35.700249,2,"RECOVERED/RESOLVED","Y",NA,NA,NA,NA,NA,"DRUG WITHDRAWN"
"AB12345-CHN-11-id-92","AB12345","cl A.1","llt A.1.1.1.2","dcd A.1.1.1.2","hlt A.1.1.1","hlgt A.1.1","2","cl A","Y","N","trm A.1.1.1.2","MODERATE","CHN","CHN-11","id-92",29.3564978753408,"F","ARM C","C: Combination","ARM C","C: Combination","WHITE",2019-06-22 11:41:37.683,2021-06-21 23:41:37.683,731,2021-06-21,"C","S1",10.8216621973404,"HIGH","Asia","Y","COMPLETED","COMPLETED",NA,NA,2020-09-21 11:41:37.683,457,2021-03-21 11:41:37.683,638,2020-07-08 15:23:50.167795,3,"NOT RECOVERED/NOT RESOLVED","Y",NA,NA,NA,NA,NA,"DOSE NOT CHANGED"
"AB12345-CHN-11-id-92","AB12345","cl C.1","llt C.1.1.1.3","dcd C.1.1.1.3","hlt C.1.1.1","hlgt C.1.1","4","cl C","N","Y","trm C.1.1.1.3","SEVERE","CHN","CHN-11","id-92",29.3564978753408,"F","ARM C","C: Combination","ARM C","C: Combination","WHITE",2019-06-22 11:41:37.683,2021-06-21 23:41:37.683,731,2021-06-21,"C","S1",10.8216621973404,"HIGH","Asia","Y","COMPLETED","COMPLETED",NA,NA,2020-12-23 11:41:37.683,550,2021-01-26 11:41:37.683,584,2020-10-29 13:54:56.356774,4,"RECOVERED/RESOLVED WITH SEQUELAE","Y",NA,"C.1.1.1.3/B.2.2.3.1 aesi","BROAD",NA,NA,"DOSE NOT CHANGED"
"AB12345-CHN-11-id-92","AB12345","cl B.1","llt B.1.1.1.1","dcd B.1.1.1.1","hlt B.1.1.1","hlgt B.1.1","5","cl B","Y","Y","trm B.1.1.1.1","SEVERE","CHN","CHN-11","id-92",29.3564978753408,"F","ARM C","C: Combination","ARM C","C: Combination","WHITE",2019-06-22 11:41:37.683,2021-06-21 23:41:37.683,731,2021-06-21,"C","S1",10.8216621973404,"HIGH","Asia","Y","COMPLETED","COMPLETED",NA,NA,2021-02-26 11:41:37.683,615,2021-04-20 11:41:37.683,668,2020-08-22 06:20:36.040806,5,"FATAL","Y",NA,NA,NA,NA,NA,"NOT EVALUABLE"
"AB12345-CHN-11-id-97","AB12345","cl D.1","llt D.1.1.1.1","dcd D.1.1.1.1","hlt D.1.1.1","hlgt D.1.1","5","cl D","Y","Y","trm D.1.1.1.1","SEVERE","CHN","CHN-11","id-97",32.0197541485176,"F","ARM A","A: Drug X","ARM A","A: Drug X","BLACK OR AFRICAN AMERICAN",2019-05-22 19:28:47.683,2021-05-22 07:28:47.683,731,2021-05-22,"A","S1",4.65422975211853,"LOW","Asia","Y","COMPLETED","COMPLETED",NA,NA,2019-09-19 19:28:47.683,120,2021-03-24 19:28:47.683,672,2019-09-11 13:52:20.198211,1,"FATAL","Y",NA,NA,NA,NA,NA,"NOT EVALUABLE"
"AB12345-CHN-11-id-97","AB12345","cl B.1","llt B.1.1.1.1","dcd B.1.1.1.1","hlt B.1.1.1","hlgt B.1.1","5","cl B","Y","Y","trm B.1.1.1.1","SEVERE","CHN","CHN-11","id-97",32.0197541485176,"F","ARM A","A: Drug X","ARM A","A: Drug X","BLACK OR AFRICAN AMERICAN",2019-05-22 19:28:47.683,2021-05-22 07:28:47.683,731,2021-05-22,"A","S1",4.65422975211853,"LOW","Asia","Y","COMPLETED","COMPLETED",NA,NA,2020-10-22 19:28:47.683,519,2021-02-07 19:28:47.683,627,2020-05-04 12:44:12.883044,2,"FATAL","Y",NA,NA,NA,NA,NA,"NOT EVALUABLE"
"AB12345-CHN-11-id-97","AB12345","cl B.2","llt B.2.2.3.1","dcd B.2.2.3.1","hlt B.2.2.3","hlgt B.2.2","1","cl B","Y","N","trm B.2.2.3.1","MILD","CHN","CHN-11","id-97",32.0197541485176,"F","ARM A","A: Drug X","ARM A","A: Drug X","BLACK OR AFRICAN AMERICAN",2019-05-22 19:28:47.683,2021-05-22 07:28:47.683,731,2021-05-22,"A","S1",4.65422975211853,"LOW","Asia","Y","COMPLETED","COMPLETED",NA,NA,2020-11-21 19:28:47.683,549,2020-12-15 19:28:47.683,573,2020-01-04 14:01:09.100693,3,"RECOVERED/RESOLVED WITH SEQUELAE","Y",NA,"C.1.1.1.3/B.2.2.3.1 aesi","BROAD",NA,NA,"DOSE INCREASED"
"AB12345-CHN-11-id-97","AB12345","cl B.2","llt B.2.2.3.1","dcd B.2.2.3.1","hlt B.2.2.3","hlgt B.2.2","1","cl B","Y","N","trm B.2.2.3.1","MILD","CHN","CHN-11","id-97",32.0197541485176,"F","ARM A","A: Drug X","ARM A","A: Drug X","BLACK OR AFRICAN AMERICAN",2019-05-22 19:28:47.683,2021-05-22 07:28:47.683,731,2021-05-22,"A","S1",4.65422975211853,"LOW","Asia","Y","COMPLETED","COMPLETED",NA,NA,2021-01-03 19:28:47.683,592,2021-02-06 19:28:47.683,626,2020-11-10 08:25:50.828223,4,"RECOVERED/RESOLVED","Y",NA,"C.1.1.1.3/B.2.2.3.1 aesi","BROAD",NA,NA,"DOSE NOT CHANGED"
"AB12345-CHN-11-id-98","AB12345","cl A.1","llt A.1.1.1.2","dcd A.1.1.1.2","hlt A.1.1.1","hlgt A.1.1","2","cl A","Y","N","trm A.1.1.1.2","MODERATE","CHN","CHN-11","id-98",38.0290972455664,"F","ARM A","A: Drug X","ARM A","A: Drug X","WHITE",2019-10-18 01:09:16.683,2021-10-17 13:09:16.683,731,2021-10-17,"C","S2",5.56433000524672,"HIGH","Asia","Y","COMPLETED","COMPLETED",NA,NA,2020-07-10 01:09:16.683,266,2021-05-22 01:09:16.683,582,2020-03-01 08:57:26.79316,1,"RECOVERED/RESOLVED","Y",NA,NA,NA,NA,NA,"DOSE NOT CHANGED"
"AB12345-CHN-11-id-98","AB12345","cl D.2","llt D.2.1.5.3","dcd D.2.1.5.3","hlt D.2.1.5","hlgt D.2.1","1","cl D","N","Y","trm D.2.1.5.3","MILD","CHN","CHN-11","id-98",38.0290972455664,"F","ARM A","A: Drug X","ARM A","A: Drug X","WHITE",2019-10-18 01:09:16.683,2021-10-17 13:09:16.683,731,2021-10-17,"C","S2",5.56433000524672,"HIGH","Asia","Y","COMPLETED","COMPLETED",NA,NA,2020-09-24 01:09:16.683,342,2021-07-02 01:09:16.683,623,2020-05-02 05:04:24.979761,2,"NOT RECOVERED/NOT RESOLVED","Y","D.2.1.5.3/A.1.1.1.1 aesi",NA,NA,NA,NA,"DOSE NOT CHANGED"
"AB12345-CHN-11-id-98","AB12345","cl D.2","llt D.2.1.5.3","dcd D.2.1.5.3","hlt D.2.1.5","hlgt D.2.1","1","cl D","N","Y","trm D.2.1.5.3","MILD","CHN","CHN-11","id-98",38.0290972455664,"F","ARM A","A: Drug X","ARM A","A: Drug X","WHITE",2019-10-18 01:09:16.683,2021-10-17 13:09:16.683,731,2021-10-17,"C","S2",5.56433000524672,"HIGH","Asia","Y","COMPLETED","COMPLETED",NA,NA,2021-01-13 01:09:16.683,453,2021-10-12 01:09:16.683,725,2019-10-25 18:12:50.865195,3,"NOT RECOVERED/NOT RESOLVED","Y","D.2.1.5.3/A.1.1.1.1 aesi",NA,NA,NA,NA,"DOSE NOT CHANGED"
"AB12345-CHN-11-id-98","AB12345","cl C.1","llt C.1.1.1.3","dcd C.1.1.1.3","hlt C.1.1.1","hlgt C.1.1","4","cl C","N","Y","trm C.1.1.1.3","SEVERE","CHN","CHN-11","id-98",38.0290972455664,"F","ARM A","A: Drug X","ARM A","A: Drug X","WHITE",2019-10-18 01:09:16.683,2021-10-17 13:09:16.683,731,2021-10-17,"C","S2",5.56433000524672,"HIGH","Asia","Y","COMPLETED","COMPLETED",NA,NA,2021-07-28 01:09:16.683,649,2021-09-11 01:09:16.683,694,2020-04-22 20:19:40.223881,4,"RECOVERING/RESOLVING","Y",NA,"C.1.1.1.3/B.2.2.3.1 aesi","BROAD",NA,NA,"NOT EVALUABLE"
"AB12345-CHN-11-id-98","AB12345","cl C.2","llt C.2.1.2.1","dcd C.2.1.2.1","hlt C.2.1.2","hlgt C.2.1","2","cl C","N","Y","trm C.2.1.2.1","MODERATE","CHN","CHN-11","id-98",38.0290972455664,"F","ARM A","A: Drug X","ARM A","A: Drug X","WHITE",2019-10-18 01:09:16.683,2021-10-17 13:09:16.683,731,2021-10-17,"C","S2",5.56433000524672,"HIGH","Asia","Y","COMPLETED","COMPLETED",NA,NA,2021-08-19 01:09:16.683,671,2021-09-22 01:09:16.683,705,2020-01-26 03:12:36.326409,5,"RECOVERING/RESOLVING","Y",NA,NA,NA,NA,NA,"DOSE REDUCED"
"AB12345-CHN-12-id-54","AB12345","cl D.1","llt D.1.1.1.1","dcd D.1.1.1.1","hlt D.1.1.1","hlgt D.1.1","5","cl D","Y","Y","trm D.1.1.1.1","SEVERE","CHN","CHN-12","id-54",32.7991326478046,"F","ARM A","A: Drug X","ARM A","A: Drug X","BLACK OR AFRICAN AMERICAN",2020-08-09 22:32:06.683,2022-08-10 10:32:06.683,731,2022-08-10,"B","S2",3.4246654455727,"MEDIUM","Asia","Y","COMPLETED","COMPLETED",NA,NA,2021-01-25 22:32:06.683,169,2022-07-09 22:32:06.683,699,2020-11-19 06:07:57.209302,1,"FATAL","Y",NA,NA,NA,NA,NA,"NOT EVALUABLE"
"AB12345-CHN-12-id-54","AB12345","cl B.2","llt B.2.1.2.1","dcd B.2.1.2.1","hlt B.2.1.2","hlgt B.2.1","3","cl B","N","N","trm B.2.1.2.1","MODERATE","CHN","CHN-12","id-54",32.7991326478046,"F","ARM A","A: Drug X","ARM A","A: Drug X","BLACK OR AFRICAN AMERICAN",2020-08-09 22:32:06.683,2022-08-10 10:32:06.683,731,2022-08-10,"B","S2",3.4246654455727,"MEDIUM","Asia","Y","COMPLETED","COMPLETED",NA,NA,2021-12-05 22:32:06.683,483,2022-05-08 22:32:06.683,637,2021-10-14 02:34:58.233213,2,"RECOVERING/RESOLVING","Y",NA,NA,NA,NA,NA,"DOSE NOT CHANGED"
"AB12345-CHN-12-id-54","AB12345","cl A.1","llt A.1.1.1.2","dcd A.1.1.1.2","hlt A.1.1.1","hlgt A.1.1","2","cl A","Y","N","trm A.1.1.1.2","MODERATE","CHN","CHN-12","id-54",32.7991326478046,"F","ARM A","A: Drug X","ARM A","A: Drug X","BLACK OR AFRICAN AMERICAN",2020-08-09 22:32:06.683,2022-08-10 10:32:06.683,731,2022-08-10,"B","S2",3.4246654455727,"MEDIUM","Asia","Y","COMPLETED","COMPLETED",NA,NA,2021-12-13 22:32:06.683,491,2022-02-20 22:32:06.683,560,2020-10-22 19:39:06.153326,3,"RECOVERING/RESOLVING","Y",NA,NA,NA,NA,NA,"DOSE RATE REDUCED"
"AB12345-CHN-12-id-54","AB12345","cl D.2","llt D.2.1.5.3","dcd D.2.1.5.3","hlt D.2.1.5","hlgt D.2.1","1","cl D","N","Y","trm D.2.1.5.3","MILD","CHN","CHN-12","id-54",32.7991326478046,"F","ARM A","A: Drug X","ARM A","A: Drug X","BLACK OR AFRICAN AMERICAN",2020-08-09 22:32:06.683,2022-08-10 10:32:06.683,731,2022-08-10,"B","S2",3.4246654455727,"MEDIUM","Asia","Y","COMPLETED","COMPLETED",NA,NA,2021-12-19 22:32:06.683,497,2022-04-04 22:32:06.683,603,2021-02-19 02:57:36.145079,4,"RECOVERED/RESOLVED WITH SEQUELAE","Y","D.2.1.5.3/A.1.1.1.1 aesi",NA,NA,NA,NA,"UNKNOWN"
"AB12345-CHN-12-id-54","AB12345","cl D.1","llt D.1.1.1.1","dcd D.1.1.1.1","hlt D.1.1.1","hlgt D.1.1","5","cl D","Y","Y","trm D.1.1.1.1","SEVERE","CHN","CHN-12","id-54",32.7991326478046,"F","ARM A","A: Drug X","ARM A","A: Drug X","BLACK OR AFRICAN AMERICAN",2020-08-09 22:32:06.683,2022-08-10 10:32:06.683,731,2022-08-10,"B","S2",3.4246654455727,"MEDIUM","Asia","Y","COMPLETED","COMPLETED",NA,NA,2022-07-12 22:32:06.683,702,2022-08-06 22:32:06.683,727,2020-10-17 19:53:55.440818,5,"FATAL","Y",NA,NA,NA,NA,NA,"NOT EVALUABLE"
"AB12345-CHN-13-id-168","AB12345","cl D.1","llt D.1.1.4.2","dcd D.1.1.4.2","hlt D.1.1.4","hlgt D.1.1","3","cl D","N","N","trm D.1.1.4.2","MODERATE","CHN","CHN-13","id-168",30.8761006958967,"F","ARM C","C: Combination","ARM C","C: Combination","ASIAN",2019-06-23 19:40:55.683,2021-06-23 07:40:55.683,731,2021-06-23,"B","S2",6.69000991897083,"MEDIUM","Asia","Y","COMPLETED","COMPLETED",NA,NA,2019-08-30 19:40:55.683,68,2019-12-13 19:40:55.683,173,2019-07-13 07:28:05.278488,1,"RECOVERED/RESOLVED","Y",NA,NA,NA,NA,NA,"DOSE NOT CHANGED"
"AB12345-CHN-13-id-168","AB12345","cl D.1","llt D.1.1.4.2","dcd D.1.1.4.2","hlt D.1.1.4","hlgt D.1.1","3","cl D","N","N","trm D.1.1.4.2","MODERATE","CHN","CHN-13","id-168",30.8761006958967,"F","ARM C","C: Combination","ARM C","C: Combination","ASIAN",2019-06-23 19:40:55.683,2021-06-23 07:40:55.683,731,2021-06-23,"B","S2",6.69000991897083,"MEDIUM","Asia","Y","COMPLETED","COMPLETED",NA,NA,2019-11-08 19:40:55.683,138,2020-09-05 19:40:55.683,440,2019-08-12 00:33:05.961401,2,"RECOVERED/RESOLVED","Y",NA,NA,NA,NA,NA,"DOSE NOT CHANGED"
"AB12345-CHN-13-id-168","AB12345","cl A.1","llt A.1.1.1.2","dcd A.1.1.1.2","hlt A.1.1.1","hlgt A.1.1","2","cl A","Y","N","trm A.1.1.1.2","MODERATE","CHN","CHN-13","id-168",30.8761006958967,"F","ARM C","C: Combination","ARM C","C: Combination","ASIAN",2019-06-23 19:40:55.683,2021-06-23 07:40:55.683,731,2021-06-23,"B","S2",6.69000991897083,"MEDIUM","Asia","Y","COMPLETED","COMPLETED",NA,NA,2020-02-12 19:40:55.683,234,2020-07-07 19:40:55.683,380,2019-11-20 15:41:19.193085,3,"RECOVERING/RESOLVING","Y",NA,NA,NA,NA,NA,"DOSE NOT CHANGED"
"AB12345-CHN-14-id-197","AB12345","cl D.1","llt D.1.1.4.2","dcd D.1.1.4.2","hlt D.1.1.4","hlgt D.1.1","3","cl D","N","N","trm D.1.1.4.2","MODERATE","CHN","CHN-14","id-197",37.8920067221533,"M","ARM B","B: Placebo","ARM B","B: Placebo","WHITE",2019-02-24 02:21:49.683,2021-02-23 14:21:49.683,731,2021-02-23,"B","S1",2.04505257490779,"HIGH","Asia","Y","COMPLETED","COMPLETED",NA,NA,2019-10-25 02:21:49.683,243,2019-11-09 02:21:49.683,258,2019-09-09 19:05:00.435058,1,"RECOVERED/RESOLVED","Y",NA,NA,NA,NA,NA,"DOSE REDUCED"
"AB12345-CHN-14-id-197","AB12345","cl C.1","llt C.1.1.1.3","dcd C.1.1.1.3","hlt C.1.1.1","hlgt C.1.1","4","cl C","N","Y","trm C.1.1.1.3","SEVERE","CHN","CHN-14","id-197",37.8920067221533,"M","ARM B","B: Placebo","ARM B","B: Placebo","WHITE",2019-02-24 02:21:49.683,2021-02-23 14:21:49.683,731,2021-02-23,"B","S1",2.04505257490779,"HIGH","Asia","Y","COMPLETED","COMPLETED",NA,NA,2020-08-13 02:21:49.683,536,2020-09-09 02:21:49.683,563,2020-07-16 01:22:40.297786,2,"RECOVERING/RESOLVING","Y",NA,"C.1.1.1.3/B.2.2.3.1 aesi","BROAD",NA,NA,"DOSE NOT CHANGED"
"AB12345-CHN-14-id-197","AB12345","cl D.2","llt D.2.1.5.3","dcd D.2.1.5.3","hlt D.2.1.5","hlgt D.2.1","1","cl D","N","Y","trm D.2.1.5.3","MILD","CHN","CHN-14","id-197",37.8920067221533,"M","ARM B","B: Placebo","ARM B","B: Placebo","WHITE",2019-02-24 02:21:49.683,2021-02-23 14:21:49.683,731,2021-02-23,"B","S1",2.04505257490779,"HIGH","Asia","Y","COMPLETED","COMPLETED",NA,NA,2021-01-27 02:21:49.683,703,2021-02-14 02:21:49.683,721,2021-01-11 19:47:49.565078,3,"RECOVERED/RESOLVED","Y","D.2.1.5.3/A.1.1.1.1 aesi",NA,NA,NA,NA,"DOSE NOT CHANGED"
"AB12345-CHN-15-id-108","AB12345","cl A.1","llt A.1.1.1.2","dcd A.1.1.1.2","hlt A.1.1.1","hlgt A.1.1","2","cl A","Y","N","trm A.1.1.1.2","MODERATE","CHN","CHN-15","id-108",28.5648541628744,"M","ARM A","A: Drug X","ARM A","A: Drug X","ASIAN",2019-12-11 14:43:16.683,2021-12-11 02:43:16.683,731,2021-12-11,"B","S1",2.94583290356746,"LOW","Asia","Y","COMPLETED","COMPLETED",NA,NA,2020-08-21 14:43:16.683,254,2021-04-17 14:43:16.683,493,2020-05-15 22:28:45.16857,1,"RECOVERING/RESOLVING","Y",NA,NA,NA,NA,NA,"DOSE INCREASED"
"AB12345-CHN-15-id-108","AB12345","cl D.2","llt D.2.1.5.3","dcd D.2.1.5.3","hlt D.2.1.5","hlgt D.2.1","1","cl D","N","Y","trm D.2.1.5.3","MILD","CHN","CHN-15","id-108",28.5648541628744,"M","ARM A","A: Drug X","ARM A","A: Drug X","ASIAN",2019-12-11 14:43:16.683,2021-12-11 02:43:16.683,731,2021-12-11,"B","S1",2.94583290356746,"LOW","Asia","Y","COMPLETED","COMPLETED",NA,NA,2020-10-01 14:43:16.683,295,2021-07-21 14:43:16.683,588,2020-07-26 00:42:10.121529,2,"RECOVERED/RESOLVED WITH SEQUELAE","Y","D.2.1.5.3/A.1.1.1.1 aesi",NA,NA,NA,NA,"DRUG WITHDRAWN"
"AB12345-CHN-15-id-108","AB12345","cl B.2","llt B.2.2.3.1","dcd B.2.2.3.1","hlt B.2.2.3","hlgt B.2.2","1","cl B","Y","N","trm B.2.2.3.1","MILD","CHN","CHN-15","id-108",28.5648541628744,"M","ARM A","A: Drug X","ARM A","A: Drug X","ASIAN",2019-12-11 14:43:16.683,2021-12-11 02:43:16.683,731,2021-12-11,"B","S1",2.94583290356746,"LOW","Asia","Y","COMPLETED","COMPLETED",NA,NA,2021-01-13 14:43:16.683,399,2021-06-05 14:43:16.683,542,2020-03-15 00:33:19.647078,3,"UNKNOWN","Y",NA,"C.1.1.1.3/B.2.2.3.1 aesi","BROAD",NA,NA,"DOSE INCREASED"
"AB12345-CHN-15-id-108","AB12345","cl A.1","llt A.1.1.1.1","dcd A.1.1.1.1","hlt A.1.1.1","hlgt A.1.1","1","cl A","N","N","trm A.1.1.1.1","MILD","CHN","CHN-15","id-108",28.5648541628744,"M","ARM A","A: Drug X","ARM A","A: Drug X","ASIAN",2019-12-11 14:43:16.683,2021-12-11 02:43:16.683,731,2021-12-11,"B","S1",2.94583290356746,"LOW","Asia","Y","COMPLETED","COMPLETED",NA,NA,2021-08-09 14:43:16.683,607,2021-10-30 14:43:16.683,689,2021-04-29 22:13:39.932401,4,"RECOVERED/RESOLVED","Y","D.2.1.5.3/A.1.1.1.1 aesi",NA,NA,NA,NA,"DOSE NOT CHANGED"
"AB12345-CHN-15-id-153","AB12345","cl B.2","llt B.2.1.2.1","dcd B.2.1.2.1","hlt B.2.1.2","hlgt B.2.1","3","cl B","N","N","trm B.2.1.2.1","MODERATE","CHN","CHN-15","id-153",44.132181566192,"M","ARM A","A: Drug X","ARM A","A: Drug X","WHITE",2019-10-22 01:09:30.683,2021-10-21 13:09:30.683,731,2021-10-21,"C","S1",3.15282234965523,"MEDIUM","Asia","Y","COMPLETED","COMPLETED",NA,NA,2019-12-15 01:09:30.683,54,2020-12-23 01:09:30.683,428,2019-10-31 15:04:15.416045,1,"RECOVERED/RESOLVED","Y",NA,NA,NA,NA,NA,"DOSE NOT CHANGED"
"AB12345-CHN-15-id-153","AB12345","cl A.1","llt A.1.1.1.2","dcd A.1.1.1.2","hlt A.1.1.1","hlgt A.1.1","2","cl A","Y","N","trm A.1.1.1.2","MODERATE","CHN","CHN-15","id-153",44.132181566192,"M","ARM A","A: Drug X","ARM A","A: Drug X","WHITE",2019-10-22 01:09:30.683,2021-10-21 13:09:30.683,731,2021-10-21,"C","S1",3.15282234965523,"MEDIUM","Asia","Y","COMPLETED","COMPLETED",NA,NA,2020-01-09 01:09:30.683,79,2020-09-16 01:09:30.683,330,2019-12-24 10:24:47.712345,2,"RECOVERING/RESOLVING","Y",NA,NA,NA,NA,NA,"UNKNOWN"
"AB12345-CHN-15-id-153","AB12345","cl B.1","llt B.1.1.1.1","dcd B.1.1.1.1","hlt B.1.1.1","hlgt B.1.1","5","cl B","Y","Y","trm B.1.1.1.1","SEVERE","CHN","CHN-15","id-153",44.132181566192,"M","ARM A","A: Drug X","ARM A","A: Drug X","WHITE",2019-10-22 01:09:30.683,2021-10-21 13:09:30.683,731,2021-10-21,"C","S1",3.15282234965523,"MEDIUM","Asia","Y","COMPLETED","COMPLETED",NA,NA,2021-10-16 01:09:30.683,725,2021-10-21 01:09:30.683,730,2020-10-03 16:22:29.141924,3,"FATAL","Y",NA,NA,NA,NA,NA,"NOT EVALUABLE"
"AB12345-CHN-15-id-64","AB12345","cl D.2","llt D.2.1.5.3","dcd D.2.1.5.3","hlt D.2.1.5","hlgt D.2.1","1","cl D","N","Y","trm D.2.1.5.3","MILD","CHN","CHN-15","id-64",37.8895232651393,"F","ARM B","B: Placebo","ARM B","B: Placebo","BLACK OR AFRICAN AMERICAN",2020-06-25 20:37:57.683,2022-06-26 08:37:57.683,731,2022-06-26,"B","S2",8.37814176762913,"HIGH","Asia","Y","COMPLETED","COMPLETED",NA,NA,2021-08-05 20:37:57.683,406,2021-08-15 20:37:57.683,416,2021-04-25 10:20:29.698636,1,"NOT RECOVERED/NOT RESOLVED","Y","D.2.1.5.3/A.1.1.1.1 aesi",NA,NA,NA,NA,"DOSE NOT CHANGED"
"AB12345-CHN-16-id-159","AB12345","cl A.1","llt A.1.1.1.1","dcd A.1.1.1.1","hlt A.1.1.1","hlgt A.1.1","1","cl A","N","N","trm A.1.1.1.1","MILD","CHN","CHN-16","id-159",39.959221564631,"M","ARM B","B: Placebo","ARM B","B: Placebo","BLACK OR AFRICAN AMERICAN",2019-10-05 20:51:52.683,2021-10-05 08:51:52.683,731,2021-10-05,"B","S1",13.735240606679,"MEDIUM","Asia","Y","COMPLETED","COMPLETED",NA,NA,2019-11-29 20:51:52.683,55,2020-01-17 20:51:52.683,104,2019-11-15 01:26:48.038509,1,"RECOVERING/RESOLVING","Y","D.2.1.5.3/A.1.1.1.1 aesi",NA,NA,NA,NA,"DOSE NOT CHANGED"
"AB12345-CHN-16-id-159","AB12345","cl B.1","llt B.1.1.1.1","dcd B.1.1.1.1","hlt B.1.1.1","hlgt B.1.1","5","cl B","Y","Y","trm B.1.1.1.1","SEVERE","CHN","CHN-16","id-159",39.959221564631,"M","ARM B","B: Placebo","ARM B","B: Placebo","BLACK OR AFRICAN AMERICAN",2019-10-05 20:51:52.683,2021-10-05 08:51:52.683,731,2021-10-05,"B","S1",13.735240606679,"MEDIUM","Asia","Y","COMPLETED","COMPLETED",NA,NA,2020-08-17 20:51:52.683,317,2020-11-01 20:51:52.683,393,2020-07-27 12:42:20.170542,2,"FATAL","Y",NA,NA,NA,NA,NA,"NOT EVALUABLE"
"AB12345-CHN-17-id-126","AB12345","cl D.2","llt D.2.1.5.3","dcd D.2.1.5.3","hlt D.2.1.5","hlgt D.2.1","1","cl D","N","Y","trm D.2.1.5.3","MILD","CHN","CHN-17","id-126",34.4932725181636,"M","ARM B","B: Placebo","ARM B","B: Placebo","ASIAN",2019-05-05 22:03:45.683,2021-05-05 10:03:45.683,731,2021-05-05,"B","S1",6.69980824816546,"LOW","Asia","Y","COMPLETED","COMPLETED",NA,NA,2020-07-14 22:03:45.683,436,2021-02-02 22:03:45.683,639,2019-08-13 14:49:20.363829,1,"RECOVERING/RESOLVING","Y","D.2.1.5.3/A.1.1.1.1 aesi",NA,NA,NA,NA,"DOSE NOT CHANGED"
"AB12345-CHN-17-id-126","AB12345","cl C.2","llt C.2.1.2.1","dcd C.2.1.2.1","hlt C.2.1.2","hlgt C.2.1","2","cl C","N","Y","trm C.2.1.2.1","MODERATE","CHN","CHN-17","id-126",34.4932725181636,"M","ARM B","B: Placebo","ARM B","B: Placebo","ASIAN",2019-05-05 22:03:45.683,2021-05-05 10:03:45.683,731,2021-05-05,"B","S1",6.69980824816546,"LOW","Asia","Y","COMPLETED","COMPLETED",NA,NA,2020-10-07 22:03:45.683,521,2020-12-27 22:03:45.683,602,2020-02-14 16:21:39.033646,2,"RECOVERED/RESOLVED","Y",NA,NA,NA,NA,NA,"DOSE NOT CHANGED"
"AB12345-CHN-17-id-126","AB12345","cl B.1","llt B.1.1.1.1","dcd B.1.1.1.1","hlt B.1.1.1","hlgt B.1.1","5","cl B","Y","Y","trm B.1.1.1.1","SEVERE","CHN","CHN-17","id-126",34.4932725181636,"M","ARM B","B: Placebo","ARM B","B: Placebo","ASIAN",2019-05-05 22:03:45.683,2021-05-05 10:03:45.683,731,2021-05-05,"B","S1",6.69980824816546,"LOW","Asia","Y","COMPLETED","COMPLETED",NA,NA,2020-12-15 22:03:45.683,590,2021-03-01 22:03:45.683,666,2020-10-11 04:22:07.180184,3,"FATAL","Y",NA,NA,NA,NA,NA,"NOT EVALUABLE"
"AB12345-CHN-17-id-126","AB12345","cl B.2","llt B.2.1.2.1","dcd B.2.1.2.1","hlt B.2.1.2","hlgt B.2.1","3","cl B","N","N","trm B.2.1.2.1","MODERATE","CHN","CHN-17","id-126",34.4932725181636,"M","ARM B","B: Placebo","ARM B","B: Placebo","ASIAN",2019-05-05 22:03:45.683,2021-05-05 10:03:45.683,731,2021-05-05,"B","S1",6.69980824816546,"LOW","Asia","Y","COMPLETED","COMPLETED",NA,NA,2021-01-04 22:03:45.683,610,2021-01-15 22:03:45.683,621,2019-09-09 04:31:51.074381,4,"RECOVERED/RESOLVED","Y",NA,NA,NA,NA,NA,"DOSE RATE REDUCED"
"AB12345-CHN-17-id-14","AB12345","cl B.1","llt B.1.1.1.1","dcd B.1.1.1.1","hlt B.1.1.1","hlgt B.1.1","5","cl B","Y","Y","trm B.1.1.1.1","SEVERE","CHN","CHN-17","id-14",35.0410627018956,"F","ARM B","B: Placebo","ARM B","B: Placebo","BLACK OR AFRICAN AMERICAN",2020-02-09 11:03:43.683,2022-02-08 23:03:43.683,731,2022-02-08,"B","S2",2.94539442157793,"MEDIUM","Asia","Y","COMPLETED","COMPLETED",NA,NA,2020-04-23 11:03:43.683,74,2020-12-21 11:03:43.683,316,2020-04-06 08:21:17.900295,1,"FATAL","Y",NA,NA,NA,NA,NA,"NOT EVALUABLE"
"AB12345-CHN-17-id-14","AB12345","cl D.1","llt D.1.1.1.1","dcd D.1.1.1.1","hlt D.1.1.1","hlgt D.1.1","5","cl D","Y","Y","trm D.1.1.1.1","SEVERE","CHN","CHN-17","id-14",35.0410627018956,"F","ARM B","B: Placebo","ARM B","B: Placebo","BLACK OR AFRICAN AMERICAN",2020-02-09 11:03:43.683,2022-02-08 23:03:43.683,731,2022-02-08,"B","S2",2.94539442157793,"MEDIUM","Asia","Y","COMPLETED","COMPLETED",NA,NA,2021-01-17 11:03:43.683,343,2021-06-09 11:03:43.683,486,2020-07-09 15:37:57.479129,2,"FATAL","Y",NA,NA,NA,NA,NA,"NOT EVALUABLE"
"AB12345-CHN-17-id-19","AB12345","cl D.2","llt D.2.1.5.3","dcd D.2.1.5.3","hlt D.2.1.5","hlgt D.2.1","1","cl D","N","Y","trm D.2.1.5.3","MILD","CHN","CHN-17","id-19",34.0908095055061,"M","ARM A","A: Drug X","ARM A","A: Drug X","BLACK OR AFRICAN AMERICAN",2019-07-19 14:45:21.683,2021-07-19 02:45:21.683,731,2021-07-19,"A","S1",3.37762433836605,"MEDIUM","Asia","Y","COMPLETED","COMPLETED",NA,NA,2019-08-10 14:45:21.683,22,2020-01-14 14:45:21.683,179,2019-07-28 13:10:40.059744,1,"UNKNOWN","Y","D.2.1.5.3/A.1.1.1.1 aesi",NA,NA,NA,NA,"DOSE NOT CHANGED"
"AB12345-CHN-17-id-19","AB12345","cl B.1","llt B.1.1.1.1","dcd B.1.1.1.1","hlt B.1.1.1","hlgt B.1.1","5","cl B","Y","Y","trm B.1.1.1.1","SEVERE","CHN","CHN-17","id-19",34.0908095055061,"M","ARM A","A: Drug X","ARM A","A: Drug X","BLACK OR AFRICAN AMERICAN",2019-07-19 14:45:21.683,2021-07-19 02:45:21.683,731,2021-07-19,"A","S1",3.37762433836605,"MEDIUM","Asia","Y","COMPLETED","COMPLETED",NA,NA,2019-12-06 14:45:21.683,140,2021-05-10 14:45:21.683,661,2019-08-27 05:29:11.143746,2,"FATAL","Y",NA,NA,NA,NA,NA,"NOT EVALUABLE"
"AB12345-CHN-17-id-19","AB12345","cl C.2","llt C.2.1.2.1","dcd C.2.1.2.1","hlt C.2.1.2","hlgt C.2.1","2","cl C","N","Y","trm C.2.1.2.1","MODERATE","CHN","CHN-17","id-19",34.0908095055061,"M","ARM A","A: Drug X","ARM A","A: Drug X","BLACK OR AFRICAN AMERICAN",2019-07-19 14:45:21.683,2021-07-19 02:45:21.683,731,2021-07-19,"A","S1",3.37762433836605,"MEDIUM","Asia","Y","COMPLETED","COMPLETED",NA,NA,2021-02-19 14:45:21.683,581,2021-04-27 14:45:21.683,648,2020-12-04 10:34:03.689306,3,"RECOVERED/RESOLVED","Y",NA,NA,NA,NA,NA,"DOSE NOT CHANGED"
"AB12345-CHN-17-id-19","AB12345","cl D.2","llt D.2.1.5.3","dcd D.2.1.5.3","hlt D.2.1.5","hlgt D.2.1","1","cl D","N","Y","trm D.2.1.5.3","MILD","CHN","CHN-17","id-19",34.0908095055061,"M","ARM A","A: Drug X","ARM A","A: Drug X","BLACK OR AFRICAN AMERICAN",2019-07-19 14:45:21.683,2021-07-19 02:45:21.683,731,2021-07-19,"A","S1",3.37762433836605,"MEDIUM","Asia","Y","COMPLETED","COMPLETED",NA,NA,2021-04-11 14:45:21.683,632,2021-05-22 14:45:21.683,673,2019-12-13 03:30:09.312116,4,"NOT RECOVERED/NOT RESOLVED","Y","D.2.1.5.3/A.1.1.1.1 aesi",NA,NA,NA,NA,"DOSE REDUCED"
"AB12345-CHN-17-id-19","AB12345","cl A.1","llt A.1.1.1.2","dcd A.1.1.1.2","hlt A.1.1.1","hlgt A.1.1","2","cl A","Y","N","trm A.1.1.1.2","MODERATE","CHN","CHN-17","id-19",34.0908095055061,"M","ARM A","A: Drug X","ARM A","A: Drug X","BLACK OR AFRICAN AMERICAN",2019-07-19 14:45:21.683,2021-07-19 02:45:21.683,731,2021-07-19,"A","S1",3.37762433836605,"MEDIUM","Asia","Y","COMPLETED","COMPLETED",NA,NA,2021-04-14 14:45:21.683,635,2021-05-16 14:45:21.683,667,2019-11-26 10:08:34.558735,5,"RECOVERING/RESOLVING","Y",NA,NA,NA,NA,NA,"DOSE NOT CHANGED"
"AB12345-CHN-18-id-11","AB12345","cl D.1","llt D.1.1.1.1","dcd D.1.1.1.1","hlt D.1.1.1","hlgt D.1.1","5","cl D","Y","Y","trm D.1.1.1.1","SEVERE","CHN","CHN-18","id-11",28.2094722159816,"F","ARM A","A: Drug X","ARM A","A: Drug X","ASIAN",2020-03-26 17:13:59.683,2022-03-27 05:13:59.683,731,2022-03-27,"C","S1",4.91374654925164,"MEDIUM","Asia","Y","COMPLETED","COMPLETED",NA,NA,2020-04-01 17:13:59.683,6,2022-01-09 17:13:59.683,654,2020-03-29 16:20:30.151465,1,"FATAL","Y",NA,NA,NA,NA,NA,"NOT EVALUABLE"
"AB12345-CHN-18-id-11","AB12345","cl D.1","llt D.1.1.4.2","dcd D.1.1.4.2","hlt D.1.1.4","hlgt D.1.1","3","cl D","N","N","trm D.1.1.4.2","MODERATE","CHN","CHN-18","id-11",28.2094722159816,"F","ARM A","A: Drug X","ARM A","A: Drug X","ASIAN",2020-03-26 17:13:59.683,2022-03-27 05:13:59.683,731,2022-03-27,"C","S1",4.91374654925164,"MEDIUM","Asia","Y","COMPLETED","COMPLETED",NA,NA,2020-10-28 17:13:59.683,216,2021-11-06 17:13:59.683,590,2020-07-18 09:05:27.446578,2,"UNKNOWN","Y",NA,NA,NA,NA,NA,"UNKNOWN"
"AB12345-CHN-18-id-11","AB12345","cl C.2","llt C.2.1.2.1","dcd C.2.1.2.1","hlt C.2.1.2","hlgt C.2.1","2","cl C","N","Y","trm C.2.1.2.1","MODERATE","CHN","CHN-18","id-11",28.2094722159816,"F","ARM A","A: Drug X","ARM A","A: Drug X","ASIAN",2020-03-26 17:13:59.683,2022-03-27 05:13:59.683,731,2022-03-27,"C","S1",4.91374654925164,"MEDIUM","Asia","Y","COMPLETED","COMPLETED",NA,NA,2020-11-14 17:13:59.683,233,2021-03-14 17:13:59.683,353,2020-06-23 23:02:28.771841,3,"RECOVERING/RESOLVING","Y",NA,NA,NA,NA,NA,"DOSE NOT CHANGED"
"AB12345-CHN-18-id-11","AB12345","cl D.1","llt D.1.1.1.1","dcd D.1.1.1.1","hlt D.1.1.1","hlgt D.1.1","5","cl D","Y","Y","trm D.1.1.1.1","SEVERE","CHN","CHN-18","id-11",28.2094722159816,"F","ARM A","A: Drug X","ARM A","A: Drug X","ASIAN",2020-03-26 17:13:59.683,2022-03-27 05:13:59.683,731,2022-03-27,"C","S1",4.91374654925164,"MEDIUM","Asia","Y","COMPLETED","COMPLETED",NA,NA,2020-11-30 17:13:59.683,249,2021-01-07 17:13:59.683,287,2020-11-13 00:19:37.460173,4,"FATAL","Y",NA,NA,NA,NA,NA,"NOT EVALUABLE"
"AB12345-CHN-18-id-11","AB12345","cl D.1","llt D.1.1.4.2","dcd D.1.1.4.2","hlt D.1.1.4","hlgt D.1.1","3","cl D","N","N","trm D.1.1.4.2","MODERATE","CHN","CHN-18","id-11",28.2094722159816,"F","ARM A","A: Drug X","ARM A","A: Drug X","ASIAN",2020-03-26 17:13:59.683,2022-03-27 05:13:59.683,731,2022-03-27,"C","S1",4.91374654925164,"MEDIUM","Asia","Y","COMPLETED","COMPLETED",NA,NA,2021-02-24 17:13:59.683,335,2021-03-04 17:13:59.683,343,2020-08-25 23:13:31.93127,5,"UNKNOWN","Y",NA,NA,NA,NA,NA,"DOSE NOT CHANGED"
"AB12345-CHN-2-id-182","AB12345","cl B.1","llt B.1.1.1.1","dcd B.1.1.1.1","hlt B.1.1.1","hlgt B.1.1","5","cl B","Y","Y","trm B.1.1.1.1","SEVERE","CHN","CHN-2","id-182",33.9437909593666,"M","ARM C","C: Combination","ARM C","C: Combination","WHITE",2020-08-14 01:09:47.683,2022-08-14 13:09:47.683,731,2022-08-14,"A","S2",4.83152422739321,"HIGH","Asia","Y","COMPLETED","COMPLETED",NA,NA,2021-11-06 01:09:47.683,449,2022-07-13 01:09:47.683,698,2021-08-30 21:08:04.838993,1,"FATAL","Y",NA,NA,NA,NA,NA,"NOT EVALUABLE"
"AB12345-CHN-2-id-182","AB12345","cl D.1","llt D.1.1.1.1","dcd D.1.1.1.1","hlt D.1.1.1","hlgt D.1.1","5","cl D","Y","Y","trm D.1.1.1.1","SEVERE","CHN","CHN-2","id-182",33.9437909593666,"M","ARM C","C: Combination","ARM C","C: Combination","WHITE",2020-08-14 01:09:47.683,2022-08-14 13:09:47.683,731,2022-08-14,"A","S2",4.83152422739321,"HIGH","Asia","Y","COMPLETED","COMPLETED",NA,NA,2022-04-20 01:09:47.683,614,2022-05-18 01:09:47.683,642,2021-11-07 16:43:17.86232,2,"FATAL","Y",NA,NA,NA,NA,NA,"NOT EVALUABLE"
"AB12345-CHN-2-id-182","AB12345","cl B.2","llt B.2.2.3.1","dcd B.2.2.3.1","hlt B.2.2.3","hlgt B.2.2","1","cl B","Y","N","trm B.2.2.3.1","MILD","CHN","CHN-2","id-182",33.9437909593666,"M","ARM C","C: Combination","ARM C","C: Combination","WHITE",2020-08-14 01:09:47.683,2022-08-14 13:09:47.683,731,2022-08-14,"A","S2",4.83152422739321,"HIGH","Asia","Y","COMPLETED","COMPLETED",NA,NA,2022-05-21 01:09:47.683,645,2022-07-09 01:09:47.683,694,2021-11-22 11:44:53.033949,3,"RECOVERED/RESOLVED","Y",NA,"C.1.1.1.3/B.2.2.3.1 aesi","BROAD",NA,NA,"DOSE NOT CHANGED"
"AB12345-CHN-2-id-182","AB12345","cl D.1","llt D.1.1.1.1","dcd D.1.1.1.1","hlt D.1.1.1","hlgt D.1.1","5","cl D","Y","Y","trm D.1.1.1.1","SEVERE","CHN","CHN-2","id-182",33.9437909593666,"M","ARM C","C: Combination","ARM C","C: Combination","WHITE",2020-08-14 01:09:47.683,2022-08-14 13:09:47.683,731,2022-08-14,"A","S2",4.83152422739321,"HIGH","Asia","Y","COMPLETED","COMPLETED",NA,NA,2022-06-09 01:09:47.683,664,2022-08-10 01:09:47.683,726,2022-02-08 10:57:57.55089,4,"FATAL","Y",NA,NA,NA,NA,NA,"NOT EVALUABLE"
"AB12345-CHN-2-id-24","AB12345","cl D.1","llt D.1.1.1.1","dcd D.1.1.1.1","hlt D.1.1.1","hlgt D.1.1","5","cl D","Y","Y","trm D.1.1.1.1","SEVERE","CHN","CHN-2","id-24",35.431305185706,"F","ARM B","B: Placebo","ARM B","B: Placebo","AMERICAN INDIAN OR ALASKA NATIVE",2020-08-20 06:27:34.683,2022-08-20 18:27:34.683,731,2022-08-20,"A","S1",1.01519283692205,"MEDIUM","Asia","Y","COMPLETED","COMPLETED",NA,NA,2021-05-06 06:27:34.683,259,2022-05-19 06:27:34.683,637,2021-01-18 15:11:38.877543,1,"FATAL","Y",NA,NA,NA,NA,NA,"NOT EVALUABLE"
"AB12345-CHN-2-id-24","AB12345","cl C.1","llt C.1.1.1.3","dcd C.1.1.1.3","hlt C.1.1.1","hlgt C.1.1","4","cl C","N","Y","trm C.1.1.1.3","SEVERE","CHN","CHN-2","id-24",35.431305185706,"F","ARM B","B: Placebo","ARM B","B: Placebo","AMERICAN INDIAN OR ALASKA NATIVE",2020-08-20 06:27:34.683,2022-08-20 18:27:34.683,731,2022-08-20,"A","S1",1.01519283692205,"MEDIUM","Asia","Y","COMPLETED","COMPLETED",NA,NA,2021-09-10 06:27:34.683,386,2022-01-25 06:27:34.683,523,2021-02-28 21:00:49.579737,2,"RECOVERED/RESOLVED","Y",NA,"C.1.1.1.3/B.2.2.3.1 aesi","BROAD",NA,NA,"DOSE REDUCED"
"AB12345-CHN-2-id-24","AB12345","cl A.1","llt A.1.1.1.1","dcd A.1.1.1.1","hlt A.1.1.1","hlgt A.1.1","1","cl A","N","N","trm A.1.1.1.1","MILD","CHN","CHN-2","id-24",35.431305185706,"F","ARM B","B: Placebo","ARM B","B: Placebo","AMERICAN INDIAN OR ALASKA NATIVE",2020-08-20 06:27:34.683,2022-08-20 18:27:34.683,731,2022-08-20,"A","S1",1.01519283692205,"MEDIUM","Asia","Y","COMPLETED","COMPLETED",NA,NA,2021-12-01 06:27:34.683,468,2022-07-29 06:27:34.683,708,2021-04-04 03:12:20.858385,3,"RECOVERING/RESOLVING","Y","D.2.1.5.3/A.1.1.1.1 aesi",NA,NA,NA,NA,"DOSE RATE REDUCED"
"AB12345-CHN-2-id-26","AB12345","cl C.1","llt C.1.1.1.3","dcd C.1.1.1.3","hlt C.1.1.1","hlgt C.1.1","4","cl C","N","Y","trm C.1.1.1.3","SEVERE","CHN","CHN-2","id-26",39.7755181332549,"F","ARM C","C: Combination","ARM C","C: Combination","ASIAN",2019-04-02 12:07:13.683,2021-04-02 00:07:13.683,731,2021-04-02,"B","S2",12.298104008552,"LOW","Asia","Y","COMPLETED","COMPLETED",NA,NA,2019-10-17 12:07:13.683,198,2020-06-27 12:07:13.683,452,2019-06-17 01:34:41.823474,1,"NOT RECOVERED/NOT RESOLVED","Y",NA,"C.1.1.1.3/B.2.2.3.1 aesi","BROAD",NA,NA,"DOSE NOT CHANGED"
"AB12345-CHN-2-id-26","AB12345","cl A.1","llt A.1.1.1.1","dcd A.1.1.1.1","hlt A.1.1.1","hlgt A.1.1","1","cl A","N","N","trm A.1.1.1.1","MILD","CHN","CHN-2","id-26",39.7755181332549,"F","ARM C","C: Combination","ARM C","C: Combination","ASIAN",2019-04-02 12:07:13.683,2021-04-02 00:07:13.683,731,2021-04-02,"B","S2",12.298104008552,"LOW","Asia","Y","COMPLETED","COMPLETED",NA,NA,2019-12-11 12:07:13.683,253,2020-08-20 12:07:13.683,506,2019-07-08 08:28:52.013147,2,"RECOVERING/RESOLVING","Y","D.2.1.5.3/A.1.1.1.1 aesi",NA,NA,NA,NA,"DRUG WITHDRAWN"
"AB12345-CHN-2-id-38","AB12345","cl D.2","llt D.2.1.5.3","dcd D.2.1.5.3","hlt D.2.1.5","hlgt D.2.1","1","cl D","N","Y","trm D.2.1.5.3","MILD","CHN","CHN-2","id-38",46.554010205546,"M","ARM A","A: Drug X","ARM A","A: Drug X","BLACK OR AFRICAN AMERICAN",2019-08-14 19:55:06.683,2021-08-14 07:55:06.683,731,2021-08-14,"A","S2",6.84680357206074,"HIGH","Asia","Y","COMPLETED","COMPLETED",NA,NA,2020-02-21 19:55:06.683,191,2020-11-27 19:55:06.683,471,2019-11-01 05:42:43.239665,1,"RECOVERING/RESOLVING","Y","D.2.1.5.3/A.1.1.1.1 aesi",NA,NA,NA,NA,"DOSE NOT CHANGED"
"AB12345-CHN-2-id-38","AB12345","cl A.1","llt A.1.1.1.2","dcd A.1.1.1.2","hlt A.1.1.1","hlgt A.1.1","2","cl A","Y","N","trm A.1.1.1.2","MODERATE","CHN","CHN-2","id-38",46.554010205546,"M","ARM A","A: Drug X","ARM A","A: Drug X","BLACK OR AFRICAN AMERICAN",2019-08-14 19:55:06.683,2021-08-14 07:55:06.683,731,2021-08-14,"A","S2",6.84680357206074,"HIGH","Asia","Y","COMPLETED","COMPLETED",NA,NA,2020-07-25 19:55:06.683,346,2021-03-04 19:55:06.683,568,2020-04-23 14:10:58.194355,2,"UNKNOWN","Y",NA,NA,NA,NA,NA,"DOSE NOT CHANGED"
"AB12345-CHN-2-id-38","AB12345","cl D.2","llt D.2.1.5.3","dcd D.2.1.5.3","hlt D.2.1.5","hlgt D.2.1","1","cl D","N","Y","trm D.2.1.5.3","MILD","CHN","CHN-2","id-38",46.554010205546,"M","ARM A","A: Drug X","ARM A","A: Drug X","BLACK OR AFRICAN AMERICAN",2019-08-14 19:55:06.683,2021-08-14 07:55:06.683,731,2021-08-14,"A","S2",6.84680357206074,"HIGH","Asia","Y","COMPLETED","COMPLETED",NA,NA,2020-12-25 19:55:06.683,499,2021-02-09 19:55:06.683,545,2020-05-03 21:18:00.835662,3,"UNKNOWN","Y","D.2.1.5.3/A.1.1.1.1 aesi",NA,NA,NA,NA,"DOSE NOT CHANGED"
"AB12345-CHN-3-id-128","AB12345","cl B.2","llt B.2.1.2.1","dcd B.2.1.2.1","hlt B.2.1.2","hlgt B.2.1","3","cl B","N","N","trm B.2.1.2.1","MODERATE","CHN","CHN-3","id-128",36.1298835286483,"M","ARM B","B: Placebo","ARM B","B: Placebo","ASIAN",2021-01-01 09:05:27.683,2023-01-01 21:05:27.683,731,2023-01-01,"C","S1",7.67722543978376,"MEDIUM","Asia","Y","COMPLETED","COMPLETED",NA,NA,2021-03-14 09:05:27.683,72,2022-03-09 09:05:27.683,432,2021-02-28 05:04:45.169343,1,"RECOVERING/RESOLVING","Y",NA,NA,NA,NA,NA,"DOSE INCREASED"
"AB12345-CHN-3-id-128","AB12345","cl D.1","llt D.1.1.1.1","dcd D.1.1.1.1","hlt D.1.1.1","hlgt D.1.1","5","cl D","Y","Y","trm D.1.1.1.1","SEVERE","CHN","CHN-3","id-128",36.1298835286483,"M","ARM B","B: Placebo","ARM B","B: Placebo","ASIAN",2021-01-01 09:05:27.683,2023-01-01 21:05:27.683,731,2023-01-01,"C","S1",7.67722543978376,"MEDIUM","Asia","Y","COMPLETED","COMPLETED",NA,NA,2021-08-05 09:05:27.683,216,2022-02-24 09:05:27.683,419,2021-07-29 17:49:37.273027,2,"FATAL","Y",NA,NA,NA,NA,NA,"NOT EVALUABLE"
"AB12345-CHN-3-id-128","AB12345","cl B.2","llt B.2.1.2.1","dcd B.2.1.2.1","hlt B.2.1.2","hlgt B.2.1","3","cl B","N","N","trm B.2.1.2.1","MODERATE","CHN","CHN-3","id-128",36.1298835286483,"M","ARM B","B: Placebo","ARM B","B: Placebo","ASIAN",2021-01-01 09:05:27.683,2023-01-01 21:05:27.683,731,2023-01-01,"C","S1",7.67722543978376,"MEDIUM","Asia","Y","COMPLETED","COMPLETED",NA,NA,2022-04-07 09:05:27.683,461,2022-04-20 09:05:27.683,474,2021-04-05 10:39:54.302274,3,"NOT RECOVERED/NOT RESOLVED","Y",NA,NA,NA,NA,NA,"DRUG WITHDRAWN"
"AB12345-CHN-3-id-128","AB12345","cl B.1","llt B.1.1.1.1","dcd B.1.1.1.1","hlt B.1.1.1","hlgt B.1.1","5","cl B","Y","Y","trm B.1.1.1.1","SEVERE","CHN","CHN-3","id-128",36.1298835286483,"M","ARM B","B: Placebo","ARM B","B: Placebo","ASIAN",2021-01-01 09:05:27.683,2023-01-01 21:05:27.683,731,2023-01-01,"C","S1",7.67722543978376,"MEDIUM","Asia","Y","COMPLETED","COMPLETED",NA,NA,2022-05-18 09:05:27.683,502,2022-06-11 09:05:27.683,526,2021-09-27 23:28:00.467589,4,"FATAL","Y",NA,NA,NA,NA,NA,"NOT EVALUABLE"
"AB12345-CHN-3-id-128","AB12345","cl D.2","llt D.2.1.5.3","dcd D.2.1.5.3","hlt D.2.1.5","hlgt D.2.1","1","cl D","N","Y","trm D.2.1.5.3","MILD","CHN","CHN-3","id-128",36.1298835286483,"M","ARM B","B: Placebo","ARM B","B: Placebo","ASIAN",2021-01-01 09:05:27.683,2023-01-01 21:05:27.683,731,2023-01-01,"C","S1",7.67722543978376,"MEDIUM","Asia","Y","COMPLETED","COMPLETED",NA,NA,2022-12-24 09:05:27.683,722,2022-12-27 09:05:27.683,725,2021-10-17 15:29:59.415231,5,"UNKNOWN","Y","D.2.1.5.3/A.1.1.1.1 aesi",NA,NA,NA,NA,"DOSE NOT CHANGED"
"AB12345-CHN-4-id-10","AB12345","cl D.1","llt D.1.1.4.2","dcd D.1.1.4.2","hlt D.1.1.4","hlgt D.1.1","3","cl D","N","N","trm D.1.1.4.2","MODERATE","CHN","CHN-4","id-10",36.8685714094758,"M","ARM B","B: Placebo","ARM B","B: Placebo","ASIAN",2019-06-04 14:47:05.683,2021-06-04 02:47:05.683,731,2021-06-04,"A","S1",6.91867504309648,"LOW","Asia","Y","COMPLETED","COMPLETED",NA,NA,2019-07-05 14:47:05.683,31,2020-01-12 14:47:05.683,222,2019-06-22 12:33:18.791133,1,"NOT RECOVERED/NOT RESOLVED","Y",NA,NA,NA,NA,NA,"DOSE NOT CHANGED"
"AB12345-CHN-4-id-10","AB12345","cl B.2","llt B.2.1.2.1","dcd B.2.1.2.1","hlt B.2.1.2","hlgt B.2.1","3","cl B","N","N","trm B.2.1.2.1","MODERATE","CHN","CHN-4","id-10",36.8685714094758,"M","ARM B","B: Placebo","ARM B","B: Placebo","ASIAN",2019-06-04 14:47:05.683,2021-06-04 02:47:05.683,731,2021-06-04,"A","S1",6.91867504309648,"LOW","Asia","Y","COMPLETED","COMPLETED",NA,NA,2019-09-29 14:47:05.683,117,2020-06-18 14:47:05.683,380,2019-08-13 09:15:50.032368,2,"RECOVERING/RESOLVING","Y",NA,NA,NA,NA,NA,"DOSE NOT CHANGED"
"AB12345-CHN-4-id-10","AB12345","cl D.2","llt D.2.1.5.3","dcd D.2.1.5.3","hlt D.2.1.5","hlgt D.2.1","1","cl D","N","Y","trm D.2.1.5.3","MILD","CHN","CHN-4","id-10",36.8685714094758,"M","ARM B","B: Placebo","ARM B","B: Placebo","ASIAN",2019-06-04 14:47:05.683,2021-06-04 02:47:05.683,731,2021-06-04,"A","S1",6.91867504309648,"LOW","Asia","Y","COMPLETED","COMPLETED",NA,NA,2020-03-06 14:47:05.683,276,2020-09-26 14:47:05.683,480,2019-07-16 06:22:46.887077,3,"RECOVERED/RESOLVED","Y","D.2.1.5.3/A.1.1.1.1 aesi",NA,NA,NA,NA,"NOT APPLICABLE"
"AB12345-CHN-4-id-114","AB12345","cl B.2","llt B.2.2.3.1","dcd B.2.2.3.1","hlt B.2.2.3","hlgt B.2.2","1","cl B","Y","N","trm B.2.2.3.1","MILD","CHN","CHN-4","id-114",40.5978557834804,"F","ARM C","C: Combination","ARM C","C: Combination","WHITE",2020-04-20 03:27:50.683,2022-04-20 15:27:50.683,731,2022-04-20,"A","S2",4.32092712636059,"MEDIUM","Asia","Y","COMPLETED","COMPLETED",NA,NA,2021-03-23 03:27:50.683,337,2021-12-02 03:27:50.683,591,2020-09-01 13:48:19.250453,1,"RECOVERING/RESOLVING","Y",NA,"C.1.1.1.3/B.2.2.3.1 aesi","BROAD",NA,NA,"DOSE NOT CHANGED"
"AB12345-CHN-4-id-114","AB12345","cl A.1","llt A.1.1.1.2","dcd A.1.1.1.2","hlt A.1.1.1","hlgt A.1.1","2","cl A","Y","N","trm A.1.1.1.2","MODERATE","CHN","CHN-4","id-114",40.5978557834804,"F","ARM C","C: Combination","ARM C","C: Combination","WHITE",2020-04-20 03:27:50.683,2022-04-20 15:27:50.683,731,2022-04-20,"A","S2",4.32092712636059,"MEDIUM","Asia","Y","COMPLETED","COMPLETED",NA,NA,2021-08-18 03:27:50.683,485,2021-10-10 03:27:50.683,538,2020-06-05 18:03:27.421353,2,"UNKNOWN","Y",NA,NA,NA,NA,NA,"DOSE NOT CHANGED"
"AB12345-CHN-4-id-114","AB12345","cl B.2","llt B.2.2.3.1","dcd B.2.2.3.1","hlt B.2.2.3","hlgt B.2.2","1","cl B","Y","N","trm B.2.2.3.1","MILD","CHN","CHN-4","id-114",40.5978557834804,"F","ARM C","C: Combination","ARM C","C: Combination","WHITE",2020-04-20 03:27:50.683,2022-04-20 15:27:50.683,731,2022-04-20,"A","S2",4.32092712636059,"MEDIUM","Asia","Y","COMPLETED","COMPLETED",NA,NA,2021-10-18 03:27:50.683,546,2021-10-26 03:27:50.683,554,2020-06-12 19:52:21.094846,3,"RECOVERING/RESOLVING","Y",NA,"C.1.1.1.3/B.2.2.3.1 aesi","BROAD",NA,NA,"DOSE NOT CHANGED"
"AB12345-CHN-4-id-114","AB12345","cl B.1","llt B.1.1.1.1","dcd B.1.1.1.1","hlt B.1.1.1","hlgt B.1.1","5","cl B","Y","Y","trm B.1.1.1.1","SEVERE","CHN","CHN-4","id-114",40.5978557834804,"F","ARM C","C: Combination","ARM C","C: Combination","WHITE",2020-04-20 03:27:50.683,2022-04-20 15:27:50.683,731,2022-04-20,"A","S2",4.32092712636059,"MEDIUM","Asia","Y","COMPLETED","COMPLETED",NA,NA,2022-03-09 03:27:50.683,688,2022-04-03 03:27:50.683,713,2021-10-18 19:21:57.042217,4,"FATAL","Y",NA,NA,NA,NA,NA,"NOT EVALUABLE"
"AB12345-CHN-5-id-113","AB12345","cl D.1","llt D.1.1.1.1","dcd D.1.1.1.1","hlt D.1.1.1","hlgt D.1.1","5","cl D","Y","Y","trm D.1.1.1.1","SEVERE","CHN","CHN-5","id-113",40.7265953782196,"F","ARM B","B: Placebo","ARM B","B: Placebo","ASIAN",2019-12-08 10:15:08.683,2021-12-07 22:15:08.683,731,2021-12-07,"A","S2",3.22131759358569,"MEDIUM","Asia","Y","COMPLETED","COMPLETED",NA,NA,2020-05-12 10:15:08.683,156,2021-06-21 10:15:08.683,561,2020-02-04 06:15:05.312885,1,"FATAL","Y",NA,NA,NA,NA,NA,"NOT EVALUABLE"
"AB12345-CHN-5-id-113","AB12345","cl C.2","llt C.2.1.2.1","dcd C.2.1.2.1","hlt C.2.1.2","hlgt C.2.1","2","cl C","N","Y","trm C.2.1.2.1","MODERATE","CHN","CHN-5","id-113",40.7265953782196,"F","ARM B","B: Placebo","ARM B","B: Placebo","ASIAN",2019-12-08 10:15:08.683,2021-12-07 22:15:08.683,731,2021-12-07,"A","S2",3.22131759358569,"MEDIUM","Asia","Y","COMPLETED","COMPLETED",NA,NA,2021-02-11 10:15:08.683,431,2021-11-08 10:15:08.683,701,2020-01-14 09:22:23.685804,2,"RECOVERING/RESOLVING","Y",NA,NA,NA,NA,NA,"NOT APPLICABLE"
"AB12345-CHN-5-id-113","AB12345","cl B.2","llt B.2.1.2.1","dcd B.2.1.2.1","hlt B.2.1.2","hlgt B.2.1","3","cl B","N","N","trm B.2.1.2.1","MODERATE","CHN","CHN-5","id-113",40.7265953782196,"F","ARM B","B: Placebo","ARM B","B: Placebo","ASIAN",2019-12-08 10:15:08.683,2021-12-07 22:15:08.683,731,2021-12-07,"A","S2",3.22131759358569,"MEDIUM","Asia","Y","COMPLETED","COMPLETED",NA,NA,2021-05-28 10:15:08.683,537,2021-10-19 10:15:08.683,681,2020-12-05 13:04:34.378434,3,"RECOVERING/RESOLVING","Y",NA,NA,NA,NA,NA,"DRUG WITHDRAWN"
"AB12345-CHN-5-id-113","AB12345","cl C.1","llt C.1.1.1.3","dcd C.1.1.1.3","hlt C.1.1.1","hlgt C.1.1","4","cl C","N","Y","trm C.1.1.1.3","SEVERE","CHN","CHN-5","id-113",40.7265953782196,"F","ARM B","B: Placebo","ARM B","B: Placebo","ASIAN",2019-12-08 10:15:08.683,2021-12-07 22:15:08.683,731,2021-12-07,"A","S2",3.22131759358569,"MEDIUM","Asia","Y","COMPLETED","COMPLETED",NA,NA,2021-07-03 10:15:08.683,573,2021-08-13 10:15:08.683,614,2020-12-02 11:23:54.314153,4,"RECOVERING/RESOLVING","Y",NA,"C.1.1.1.3/B.2.2.3.1 aesi","BROAD",NA,NA,"NOT EVALUABLE"
"AB12345-CHN-5-id-113","AB12345","cl B.1","llt B.1.1.1.1","dcd B.1.1.1.1","hlt B.1.1.1","hlgt B.1.1","5","cl B","Y","Y","trm B.1.1.1.1","SEVERE","CHN","CHN-5","id-113",40.7265953782196,"F","ARM B","B: Placebo","ARM B","B: Placebo","ASIAN",2019-12-08 10:15:08.683,2021-12-07 22:15:08.683,731,2021-12-07,"A","S2",3.22131759358569,"MEDIUM","Asia","Y","COMPLETED","COMPLETED",NA,NA,2021-08-27 10:15:08.683,628,2021-09-16 10:15:08.683,648,2020-12-24 23:28:40.639918,5,"FATAL","Y",NA,NA,NA,NA,NA,"NOT EVALUABLE"
"AB12345-CHN-5-id-163","AB12345","cl B.1","llt B.1.1.1.1","dcd B.1.1.1.1","hlt B.1.1.1","hlgt B.1.1","5","cl B","Y","Y","trm B.1.1.1.1","SEVERE","CHN","CHN-5","id-163",34.4644832079002,"M","ARM A","A: Drug X","ARM A","A: Drug X","BLACK OR AFRICAN AMERICAN",2019-08-04 19:11:17.683,2021-08-04 07:11:17.683,731,2021-08-04,"C","S2",12.7687917784323,"LOW","Asia","Y","COMPLETED","COMPLETED",NA,NA,2020-11-24 19:11:17.683,478,2021-08-03 19:11:17.683,730,2020-02-24 02:23:02.068182,1,"FATAL","Y",NA,NA,NA,NA,NA,"NOT EVALUABLE"
"AB12345-CHN-5-id-166","AB12345","cl B.2","llt B.2.1.2.1","dcd B.2.1.2.1","hlt B.2.1.2","hlgt B.2.1","3","cl B","N","N","trm B.2.1.2.1","MODERATE","CHN","CHN-5","id-166",39.8572846914422,"M","ARM A","A: Drug X","ARM A","A: Drug X","WHITE",2019-12-20 04:24:16.683,2021-12-19 16:24:16.683,731,2021-12-19,"A","S1",6.39220783036421,"MEDIUM","Asia","Y","COMPLETED","COMPLETED",NA,NA,2020-06-30 04:24:16.683,193,2021-10-30 04:24:16.683,680,2020-03-18 15:20:38.393874,1,"RECOVERING/RESOLVING","Y",NA,NA,NA,NA,NA,"DOSE NOT CHANGED"
"AB12345-CHN-5-id-166","AB12345","cl D.1","llt D.1.1.4.2","dcd D.1.1.4.2","hlt D.1.1.4","hlgt D.1.1","3","cl D","N","N","trm D.1.1.4.2","MODERATE","CHN","CHN-5","id-166",39.8572846914422,"M","ARM A","A: Drug X","ARM A","A: Drug X","WHITE",2019-12-20 04:24:16.683,2021-12-19 16:24:16.683,731,2021-12-19,"A","S1",6.39220783036421,"MEDIUM","Asia","Y","COMPLETED","COMPLETED",NA,NA,2021-05-18 04:24:16.683,515,2021-08-31 04:24:16.683,620,2021-02-19 06:10:39.233334,2,"UNKNOWN","Y",NA,NA,NA,NA,NA,"DRUG WITHDRAWN"
"AB12345-CHN-5-id-166","AB12345","cl C.1","llt C.1.1.1.3","dcd C.1.1.1.3","hlt C.1.1.1","hlgt C.1.1","4","cl C","N","Y","trm C.1.1.1.3","SEVERE","CHN","CHN-5","id-166",39.8572846914422,"M","ARM A","A: Drug X","ARM A","A: Drug X","WHITE",2019-12-20 04:24:16.683,2021-12-19 16:24:16.683,731,2021-12-19,"A","S1",6.39220783036421,"MEDIUM","Asia","Y","COMPLETED","COMPLETED",NA,NA,2021-08-27 04:24:16.683,616,2021-12-19 04:24:16.683,730,2020-07-28 09:15:14.631357,3,"NOT RECOVERED/NOT RESOLVED","Y",NA,"C.1.1.1.3/B.2.2.3.1 aesi","BROAD",NA,NA,"UNKNOWN"
"AB12345-CHN-5-id-30","AB12345","cl A.1","llt A.1.1.1.2","dcd A.1.1.1.2","hlt A.1.1.1","hlgt A.1.1","2","cl A","Y","N","trm A.1.1.1.2","MODERATE","CHN","CHN-5","id-30",22.3581496521262,"F","ARM A","A: Drug X","ARM A","A: Drug X","BLACK OR AFRICAN AMERICAN",2019-09-03 10:24:48.683,2021-09-02 22:24:48.683,731,2021-09-02,"B","S1",5.65060349733194,"MEDIUM","Asia","Y","COMPLETED","COMPLETED",NA,NA,2020-03-03 10:24:48.683,182,2021-03-14 10:24:48.683,558,2019-11-03 22:43:13.042812,1,"RECOVERING/RESOLVING","Y",NA,NA,NA,NA,NA,"DOSE REDUCED"
"AB12345-CHN-5-id-30","AB12345","cl D.1","llt D.1.1.1.1","dcd D.1.1.1.1","hlt D.1.1.1","hlgt D.1.1","5","cl D","Y","Y","trm D.1.1.1.1","SEVERE","CHN","CHN-5","id-30",22.3581496521262,"F","ARM A","A: Drug X","ARM A","A: Drug X","BLACK OR AFRICAN AMERICAN",2019-09-03 10:24:48.683,2021-09-02 22:24:48.683,731,2021-09-02,"B","S1",5.65060349733194,"MEDIUM","Asia","Y","COMPLETED","COMPLETED",NA,NA,2020-06-22 10:24:48.683,293,2020-07-31 10:24:48.683,332,2019-11-04 20:13:55.277197,2,"FATAL","Y",NA,NA,NA,NA,NA,"NOT EVALUABLE"
"AB12345-CHN-5-id-30","AB12345","cl C.1","llt C.1.1.1.3","dcd C.1.1.1.3","hlt C.1.1.1","hlgt C.1.1","4","cl C","N","Y","trm C.1.1.1.3","SEVERE","CHN","CHN-5","id-30",22.3581496521262,"F","ARM A","A: Drug X","ARM A","A: Drug X","BLACK OR AFRICAN AMERICAN",2019-09-03 10:24:48.683,2021-09-02 22:24:48.683,731,2021-09-02,"B","S1",5.65060349733194,"MEDIUM","Asia","Y","COMPLETED","COMPLETED",NA,NA,2020-08-14 10:24:48.683,346,2020-12-30 10:24:48.683,484,2020-06-16 03:57:23.25652,3,"RECOVERED/RESOLVED","Y",NA,"C.1.1.1.3/B.2.2.3.1 aesi","BROAD",NA,NA,"DOSE NOT CHANGED"
"AB12345-CHN-6-id-83","AB12345","cl B.2","llt B.2.1.2.1","dcd B.2.1.2.1","hlt B.2.1.2","hlgt B.2.1","3","cl B","N","N","trm B.2.1.2.1","MODERATE","CHN","CHN-6","id-83",29.8667805601584,"M","ARM B","B: Placebo","ARM B","B: Placebo","WHITE",2020-03-14 23:13:37.683,2022-03-15 11:13:37.683,731,2022-03-15,"A","S1",5.48982612591189,"HIGH","Asia","Y","COMPLETED","COMPLETED",NA,NA,2021-10-07 23:13:37.683,572,2022-02-20 23:13:37.683,708,2020-04-05 15:46:18.787176,1,"RECOVERED/RESOLVED","Y",NA,NA,NA,NA,NA,"DOSE NOT CHANGED"
"AB12345-CHN-7-id-193","AB12345","cl D.1","llt D.1.1.1.1","dcd D.1.1.1.1","hlt D.1.1.1","hlgt D.1.1","5","cl D","Y","Y","trm D.1.1.1.1","SEVERE","CHN","CHN-7","id-193",44.3765427889492,"F","ARM A","A: Drug X","ARM A","A: Drug X","ASIAN",2020-04-07 23:57:00.683,2022-04-08 11:57:00.683,731,2022-04-08,"A","S1",3.07326431197423,"LOW","Asia","Y","COMPLETED","COMPLETED",NA,NA,2020-12-20 23:57:00.683,257,2021-11-18 23:57:00.683,590,2020-06-29 21:44:44.191105,1,"FATAL","Y",NA,NA,NA,NA,NA,"NOT EVALUABLE"
"AB12345-CHN-7-id-193","AB12345","cl D.2","llt D.2.1.5.3","dcd D.2.1.5.3","hlt D.2.1.5","hlgt D.2.1","1","cl D","N","Y","trm D.2.1.5.3","MILD","CHN","CHN-7","id-193",44.3765427889492,"F","ARM A","A: Drug X","ARM A","A: Drug X","ASIAN",2020-04-07 23:57:00.683,2022-04-08 11:57:00.683,731,2022-04-08,"A","S1",3.07326431197423,"LOW","Asia","Y","COMPLETED","COMPLETED",NA,NA,2021-01-18 23:57:00.683,286,2021-12-19 23:57:00.683,621,2020-11-10 18:49:08.178288,2,"RECOVERED/RESOLVED","Y","D.2.1.5.3/A.1.1.1.1 aesi",NA,NA,NA,NA,"DOSE INCREASED"
"AB12345-CHN-7-id-193","AB12345","cl C.2","llt C.2.1.2.1","dcd C.2.1.2.1","hlt C.2.1.2","hlgt C.2.1","2","cl C","N","Y","trm C.2.1.2.1","MODERATE","CHN","CHN-7","id-193",44.3765427889492,"F","ARM A","A: Drug X","ARM A","A: Drug X","ASIAN",2020-04-07 23:57:00.683,2022-04-08 11:57:00.683,731,2022-04-08,"A","S1",3.07326431197423,"LOW","Asia","Y","COMPLETED","COMPLETED",NA,NA,2021-04-24 23:57:00.683,382,2021-11-25 23:57:00.683,597,2020-11-20 21:05:01.453114,3,"NOT RECOVERED/NOT RESOLVED","Y",NA,NA,NA,NA,NA,"DOSE INCREASED"
"AB12345-CHN-7-id-193","AB12345","cl B.2","llt B.2.2.3.1","dcd B.2.2.3.1","hlt B.2.2.3","hlgt B.2.2","1","cl B","Y","N","trm B.2.2.3.1","MILD","CHN","CHN-7","id-193",44.3765427889492,"F","ARM A","A: Drug X","ARM A","A: Drug X","ASIAN",2020-04-07 23:57:00.683,2022-04-08 11:57:00.683,731,2022-04-08,"A","S1",3.07326431197423,"LOW","Asia","Y","COMPLETED","COMPLETED",NA,NA,2021-12-03 23:57:00.683,605,2022-02-07 23:57:00.683,671,2021-04-17 03:48:56.896715,4,"RECOVERING/RESOLVING","Y",NA,"C.1.1.1.3/B.2.2.3.1 aesi","BROAD",NA,NA,"DOSE NOT CHANGED"
"AB12345-CHN-7-id-193","AB12345","cl D.1","llt D.1.1.1.1","dcd D.1.1.1.1","hlt D.1.1.1","hlgt D.1.1","5","cl D","Y","Y","trm D.1.1.1.1","SEVERE","CHN","CHN-7","id-193",44.3765427889492,"F","ARM A","A: Drug X","ARM A","A: Drug X","ASIAN",2020-04-07 23:57:00.683,2022-04-08 11:57:00.683,731,2022-04-08,"A","S1",3.07326431197423,"LOW","Asia","Y","COMPLETED","COMPLETED",NA,NA,2022-02-13 23:57:00.683,677,2022-03-30 23:57:00.683,722,2020-07-26 01:56:23.034395,5,"FATAL","Y",NA,NA,NA,NA,NA,"NOT EVALUABLE"
"AB12345-CHN-7-id-25","AB12345","cl B.1","llt B.1.1.1.1","dcd B.1.1.1.1","hlt B.1.1.1","hlgt B.1.1","5","cl B","Y","Y","trm B.1.1.1.1","SEVERE","CHN","CHN-7","id-25",26.9328211641035,"M","ARM B","B: Placebo","ARM B","B: Placebo","ASIAN",2019-12-29 13:52:08.683,2021-12-29 01:52:08.683,731,2021-12-29,"B","S2",6.0263531983441,"LOW","Asia","Y","COMPLETED","COMPLETED",NA,NA,2020-03-25 13:52:08.683,87,2021-04-25 13:52:08.683,483,2019-12-31 09:25:53.670092,1,"FATAL","Y",NA,NA,NA,NA,NA,"NOT EVALUABLE"
"AB12345-CHN-7-id-25","AB12345","cl D.2","llt D.2.1.5.3","dcd D.2.1.5.3","hlt D.2.1.5","hlgt D.2.1","1","cl D","N","Y","trm D.2.1.5.3","MILD","CHN","CHN-7","id-25",26.9328211641035,"M","ARM B","B: Placebo","ARM B","B: Placebo","ASIAN",2019-12-29 13:52:08.683,2021-12-29 01:52:08.683,731,2021-12-29,"B","S2",6.0263531983441,"LOW","Asia","Y","COMPLETED","COMPLETED",NA,NA,2021-04-01 13:52:08.683,459,2021-07-29 13:52:08.683,578,2020-10-03 21:32:38.877852,2,"UNKNOWN","Y","D.2.1.5.3/A.1.1.1.1 aesi",NA,NA,NA,NA,"DOSE NOT CHANGED"
"AB12345-CHN-8-id-155","AB12345","cl D.2","llt D.2.1.5.3","dcd D.2.1.5.3","hlt D.2.1.5","hlgt D.2.1","1","cl D","N","Y","trm D.2.1.5.3","MILD","CHN","CHN-8","id-155",34.1587764381253,"F","ARM B","B: Placebo","ARM B","B: Placebo","ASIAN",2019-03-21 00:16:27.683,2021-03-20 12:16:27.683,731,2021-03-20,"C","S1",4.20700733153641,"MEDIUM","Asia","Y","COMPLETED","COMPLETED",NA,NA,2020-11-02 00:16:27.683,592,2021-02-17 00:16:27.683,699,2020-07-15 00:48:41.285226,1,"NOT RECOVERED/NOT RESOLVED","Y","D.2.1.5.3/A.1.1.1.1 aesi",NA,NA,NA,NA,"DOSE INCREASED"
"AB12345-CHN-8-id-184","AB12345","cl B.2","llt B.2.1.2.1","dcd B.2.1.2.1","hlt B.2.1.2","hlgt B.2.1","3","cl B","N","N","trm B.2.1.2.1","MODERATE","CHN","CHN-8","id-184",23.3376794556214,"F","ARM B","B: Placebo","ARM B","B: Placebo","WHITE",2020-06-29 01:49:13.683,2022-06-29 13:49:13.683,731,2022-06-29,"B","S1",2.39451516235135,"MEDIUM","Asia","Y","COMPLETED","COMPLETED",NA,NA,2020-11-08 01:49:13.683,132,2022-03-04 01:49:13.683,613,2020-10-16 12:01:07.316734,1,"RECOVERED/RESOLVED WITH SEQUELAE","Y",NA,NA,NA,NA,NA,"UNKNOWN"
"AB12345-CHN-8-id-184","AB12345","cl C.2","llt C.2.1.2.1","dcd C.2.1.2.1","hlt C.2.1.2","hlgt C.2.1","2","cl C","N","Y","trm C.2.1.2.1","MODERATE","CHN","CHN-8","id-184",23.3376794556214,"F","ARM B","B: Placebo","ARM B","B: Placebo","WHITE",2020-06-29 01:49:13.683,2022-06-29 13:49:13.683,731,2022-06-29,"B","S1",2.39451516235135,"MEDIUM","Asia","Y","COMPLETED","COMPLETED",NA,NA,2020-12-06 01:49:13.683,160,2021-04-10 01:49:13.683,285,2020-07-11 12:38:37.262607,2,"RECOVERED/RESOLVED","Y",NA,NA,NA,NA,NA,"DOSE NOT CHANGED"
"AB12345-CHN-8-id-184","AB12345","cl D.1","llt D.1.1.1.1","dcd D.1.1.1.1","hlt D.1.1.1","hlgt D.1.1","5","cl D","Y","Y","trm D.1.1.1.1","SEVERE","CHN","CHN-8","id-184",23.3376794556214,"F","ARM B","B: Placebo","ARM B","B: Placebo","WHITE",2020-06-29 01:49:13.683,2022-06-29 13:49:13.683,731,2022-06-29,"B","S1",2.39451516235135,"MEDIUM","Asia","Y","COMPLETED","COMPLETED",NA,NA,2021-01-27 01:49:13.683,212,2021-10-24 01:49:13.683,482,2020-10-11 04:09:11.479011,3,"FATAL","Y",NA,NA,NA,NA,NA,"NOT EVALUABLE"
"AB12345-CHN-8-id-184","AB12345","cl B.2","llt B.2.1.2.1","dcd B.2.1.2.1","hlt B.2.1.2","hlgt B.2.1","3","cl B","N","N","trm B.2.1.2.1","MODERATE","CHN","CHN-8","id-184",23.3376794556214,"F","ARM B","B: Placebo","ARM B","B: Placebo","WHITE",2020-06-29 01:49:13.683,2022-06-29 13:49:13.683,731,2022-06-29,"B","S1",2.39451516235135,"MEDIUM","Asia","Y","COMPLETED","COMPLETED",NA,NA,2021-02-08 01:49:13.683,224,2021-07-15 01:49:13.683,381,2020-07-02 17:09:22.068158,4,"RECOVERED/RESOLVED WITH SEQUELAE","Y",NA,NA,NA,NA,NA,"DOSE REDUCED"
"AB12345-CHN-8-id-184","AB12345","cl B.1","llt B.1.1.1.1","dcd B.1.1.1.1","hlt B.1.1.1","hlgt B.1.1","5","cl B","Y","Y","trm B.1.1.1.1","SEVERE","CHN","CHN-8","id-184",23.3376794556214,"F","ARM B","B: Placebo","ARM B","B: Placebo","WHITE",2020-06-29 01:49:13.683,2022-06-29 13:49:13.683,731,2022-06-29,"B","S1",2.39451516235135,"MEDIUM","Asia","Y","COMPLETED","COMPLETED",NA,NA,2022-04-02 01:49:13.683,642,2022-05-12 01:49:13.683,682,2020-09-09 10:11:51.966614,5,"FATAL","Y",NA,NA,NA,NA,NA,"NOT EVALUABLE"
"AB12345-CHN-9-id-106","AB12345","cl B.2","llt B.2.2.3.1","dcd B.2.2.3.1","hlt B.2.2.3","hlgt B.2.2","1","cl B","Y","N","trm B.2.2.3.1","MILD","CHN","CHN-9","id-106",34.739322801186,"F","ARM C","C: Combination","ARM C","C: Combination","ASIAN",2020-10-14 23:49:06.683,2022-10-15 11:49:06.683,731,2022-10-15,"B","S1",5.62283936542727,"LOW","Asia","Y","COMPLETED","COMPLETED",NA,NA,2020-11-05 23:49:06.683,22,2021-03-04 23:49:06.683,141,2020-10-20 02:49:55.163204,1,"UNKNOWN","Y",NA,"C.1.1.1.3/B.2.2.3.1 aesi","BROAD",NA,NA,"DOSE INCREASED"
"AB12345-CHN-9-id-106","AB12345","cl B.2","llt B.2.1.2.1","dcd B.2.1.2.1","hlt B.2.1.2","hlgt B.2.1","3","cl B","N","N","trm B.2.1.2.1","MODERATE","CHN","CHN-9","id-106",34.739322801186,"F","ARM C","C: Combination","ARM C","C: Combination","ASIAN",2020-10-14 23:49:06.683,2022-10-15 11:49:06.683,731,2022-10-15,"B","S1",5.62283936542727,"LOW","Asia","Y","COMPLETED","COMPLETED",NA,NA,2022-04-17 23:49:06.683,550,2022-07-30 23:49:06.683,654,2022-01-09 20:10:52.282248,2,"RECOVERING/RESOLVING","Y",NA,NA,NA,NA,NA,"DOSE NOT CHANGED"
"AB12345-CHN-9-id-106","AB12345","cl D.2","llt D.2.1.5.3","dcd D.2.1.5.3","hlt D.2.1.5","hlgt D.2.1","1","cl D","N","Y","trm D.2.1.5.3","MILD","CHN","CHN-9","id-106",34.739322801186,"F","ARM C","C: Combination","ARM C","C: Combination","ASIAN",2020-10-14 23:49:06.683,2022-10-15 11:49:06.683,731,2022-10-15,"B","S1",5.62283936542727,"LOW","Asia","Y","COMPLETED","COMPLETED",NA,NA,2022-05-16 23:49:06.683,579,2022-06-06 23:49:06.683,600,2021-05-26 10:46:52.838256,3,"RECOVERED/RESOLVED","Y","D.2.1.5.3/A.1.1.1.1 aesi",NA,NA,NA,NA,"DOSE INCREASED"
"AB12345-CHN-9-id-124","AB12345","cl D.2","llt D.2.1.5.3","dcd D.2.1.5.3","hlt D.2.1.5","hlgt D.2.1","1","cl D","N","Y","trm D.2.1.5.3","MILD","CHN","CHN-9","id-124",36.128146846596,"F","ARM B","B: Placebo","ARM B","B: Placebo","ASIAN",2020-05-23 04:08:27.683,2022-05-23 16:08:27.683,731,2022-05-23,"A","S1",11.124217802206,"LOW","Asia","Y","COMPLETED","COMPLETED",NA,NA,2020-09-06 04:08:27.683,106,2021-07-13 04:08:27.683,416,2020-07-27 13:53:17.625722,1,"RECOVERING/RESOLVING","Y","D.2.1.5.3/A.1.1.1.1 aesi",NA,NA,NA,NA,"NOT EVALUABLE"
"AB12345-CHN-9-id-124","AB12345","cl B.2","llt B.2.2.3.1","dcd B.2.2.3.1","hlt B.2.2.3","hlgt B.2.2","1","cl B","Y","N","trm B.2.2.3.1","MILD","CHN","CHN-9","id-124",36.128146846596,"F","ARM B","B: Placebo","ARM B","B: Placebo","ASIAN",2020-05-23 04:08:27.683,2022-05-23 16:08:27.683,731,2022-05-23,"A","S1",11.124217802206,"LOW","Asia","Y","COMPLETED","COMPLETED",NA,NA,2020-11-04 04:08:27.683,165,2022-02-07 04:08:27.683,625,2020-07-26 19:17:20.810786,2,"RECOVERING/RESOLVING","Y",NA,"C.1.1.1.3/B.2.2.3.1 aesi","BROAD",NA,NA,"DOSE NOT CHANGED"
"AB12345-CHN-9-id-124","AB12345","cl B.1","llt B.1.1.1.1","dcd B.1.1.1.1","hlt B.1.1.1","hlgt B.1.1","5","cl B","Y","Y","trm B.1.1.1.1","SEVERE","CHN","CHN-9","id-124",36.128146846596,"F","ARM B","B: Placebo","ARM B","B: Placebo","ASIAN",2020-05-23 04:08:27.683,2022-05-23 16:08:27.683,731,2022-05-23,"A","S1",11.124217802206,"LOW","Asia","Y","COMPLETED","COMPLETED",NA,NA,2021-08-05 04:08:27.683,439,2021-09-24 04:08:27.683,489,2021-04-16 09:34:29.683071,3,"FATAL","Y",NA,NA,NA,NA,NA,"NOT EVALUABLE"
"AB12345-CHN-9-id-124","AB12345","cl B.2","llt B.2.1.2.1","dcd B.2.1.2.1","hlt B.2.1.2","hlgt B.2.1","3","cl B","N","N","trm B.2.1.2.1","MODERATE","CHN","CHN-9","id-124",36.128146846596,"F","ARM B","B: Placebo","ARM B","B: Placebo","ASIAN",2020-05-23 04:08:27.683,2022-05-23 16:08:27.683,731,2022-05-23,"A","S1",11.124217802206,"LOW","Asia","Y","COMPLETED","COMPLETED",NA,NA,2021-09-10 04:08:27.683,475,2022-03-07 04:08:27.683,653,2021-01-12 03:04:52.209046,4,"RECOVERED/RESOLVED WITH SEQUELAE","Y",NA,NA,NA,NA,NA,"DOSE REDUCED"
"AB12345-CHN-9-id-124","AB12345","cl B.2","llt B.2.1.2.1","dcd B.2.1.2.1","hlt B.2.1.2","hlgt B.2.1","3","cl B","N","N","trm B.2.1.2.1","MODERATE","CHN","CHN-9","id-124",36.128146846596,"F","ARM B","B: Placebo","ARM B","B: Placebo","ASIAN",2020-05-23 04:08:27.683,2022-05-23 16:08:27.683,731,2022-05-23,"A","S1",11.124217802206,"LOW","Asia","Y","COMPLETED","COMPLETED",NA,NA,2021-11-25 04:08:27.683,551,2022-04-09 04:08:27.683,686,2021-10-19 03:37:04.307679,5,"RECOVERED/RESOLVED","Y",NA,NA,NA,NA,NA,"DOSE NOT CHANGED"
"AB12345-GBR-11-id-111","AB12345","cl B.2","llt B.2.2.3.1","dcd B.2.2.3.1","hlt B.2.2.3","hlgt B.2.2","1","cl B","Y","N","trm B.2.2.3.1","MILD","GBR","GBR-11","id-111",39.0858080120856,"F","ARM C","C: Combination","ARM C","C: Combination","BLACK OR AFRICAN AMERICAN",2020-12-12 02:49:28.683,2022-12-12 14:49:28.683,731,2022-12-12,"A","S1",2.6889098661748,"MEDIUM","Europe","Y","COMPLETED","COMPLETED",NA,NA,2021-07-22 02:49:28.683,222,2022-03-15 02:49:28.683,458,2021-03-26 01:50:22.470933,1,"NOT RECOVERED/NOT RESOLVED","Y",NA,"C.1.1.1.3/B.2.2.3.1 aesi","BROAD",NA,NA,"DOSE NOT CHANGED"
"AB12345-GBR-11-id-111","AB12345","cl A.1","llt A.1.1.1.2","dcd A.1.1.1.2","hlt A.1.1.1","hlgt A.1.1","2","cl A","Y","N","trm A.1.1.1.2","MODERATE","GBR","GBR-11","id-111",39.0858080120856,"F","ARM C","C: Combination","ARM C","C: Combination","BLACK OR AFRICAN AMERICAN",2020-12-12 02:49:28.683,2022-12-12 14:49:28.683,731,2022-12-12,"A","S1",2.6889098661748,"MEDIUM","Europe","Y","COMPLETED","COMPLETED",NA,NA,2021-08-09 02:49:28.683,240,2021-10-11 02:49:28.683,303,2021-03-17 08:10:30.920907,2,"RECOVERED/RESOLVED WITH SEQUELAE","Y",NA,NA,NA,NA,NA,"NOT APPLICABLE"
"AB12345-GBR-11-id-111","AB12345","cl B.2","llt B.2.1.2.1","dcd B.2.1.2.1","hlt B.2.1.2","hlgt B.2.1","3","cl B","N","N","trm B.2.1.2.1","MODERATE","GBR","GBR-11","id-111",39.0858080120856,"F","ARM C","C: Combination","ARM C","C: Combination","BLACK OR AFRICAN AMERICAN",2020-12-12 02:49:28.683,2022-12-12 14:49:28.683,731,2022-12-12,"A","S1",2.6889098661748,"MEDIUM","Europe","Y","COMPLETED","COMPLETED",NA,NA,2021-09-03 02:49:28.683,265,2022-05-12 02:49:28.683,516,2021-04-02 14:11:37.430101,3,"RECOVERED/RESOLVED","Y",NA,NA,NA,NA,NA,"DOSE NOT CHANGED"
"AB12345-GBR-11-id-111","AB12345","cl A.1","llt A.1.1.1.1","dcd A.1.1.1.1","hlt A.1.1.1","hlgt A.1.1","1","cl A","N","N","trm A.1.1.1.1","MILD","GBR","GBR-11","id-111",39.0858080120856,"F","ARM C","C: Combination","ARM C","C: Combination","BLACK OR AFRICAN AMERICAN",2020-12-12 02:49:28.683,2022-12-12 14:49:28.683,731,2022-12-12,"A","S1",2.6889098661748,"MEDIUM","Europe","Y","COMPLETED","COMPLETED",NA,NA,2022-02-01 02:49:28.683,416,2022-04-13 02:49:28.683,487,2021-12-28 00:31:22.532974,4,"RECOVERED/RESOLVED","Y","D.2.1.5.3/A.1.1.1.1 aesi",NA,NA,NA,NA,"DOSE INCREASED"
"AB12345-GBR-11-id-111","AB12345","cl C.1","llt C.1.1.1.3","dcd C.1.1.1.3","hlt C.1.1.1","hlgt C.1.1","4","cl C","N","Y","trm C.1.1.1.3","SEVERE","GBR","GBR-11","id-111",39.0858080120856,"F","ARM C","C: Combination","ARM C","C: Combination","BLACK OR AFRICAN AMERICAN",2020-12-12 02:49:28.683,2022-12-12 14:49:28.683,731,2022-12-12,"A","S1",2.6889098661748,"MEDIUM","Europe","Y","COMPLETED","COMPLETED",NA,NA,2022-05-24 02:49:28.683,528,2022-06-04 02:49:28.683,539,2021-08-23 18:42:44.714427,5,"UNKNOWN","Y",NA,"C.1.1.1.3/B.2.2.3.1 aesi","BROAD",NA,NA,"DOSE REDUCED"
"AB12345-GBR-3-id-80","AB12345","cl A.1","llt A.1.1.1.1","dcd A.1.1.1.1","hlt A.1.1.1","hlgt A.1.1","1","cl A","N","N","trm A.1.1.1.1","MILD","GBR","GBR-3","id-80",41.5160825881981,"M","ARM A","A: Drug X","ARM A","A: Drug X","ASIAN",2020-01-15 10:48:14.683,2022-01-14 22:48:14.683,731,2022-01-14,"C","S2",8.96423564079763,"LOW","Europe","Y","COMPLETED","COMPLETED",NA,NA,2021-02-01 10:48:14.683,383,2021-07-02 10:48:14.683,534,2020-04-09 06:23:25.521065,1,"RECOVERING/RESOLVING","Y","D.2.1.5.3/A.1.1.1.1 aesi",NA,NA,NA,NA,"DOSE NOT CHANGED"
"AB12345-GBR-3-id-80","AB12345","cl C.2","llt C.2.1.2.1","dcd C.2.1.2.1","hlt C.2.1.2","hlgt C.2.1","2","cl C","N","Y","trm C.2.1.2.1","MODERATE","GBR","GBR-3","id-80",41.5160825881981,"M","ARM A","A: Drug X","ARM A","A: Drug X","ASIAN",2020-01-15 10:48:14.683,2022-01-14 22:48:14.683,731,2022-01-14,"C","S2",8.96423564079763,"LOW","Europe","Y","COMPLETED","COMPLETED",NA,NA,2021-02-09 10:48:14.683,391,2021-08-18 10:48:14.683,581,2020-06-15 10:56:55.190718,2,"RECOVERING/RESOLVING","Y",NA,NA,NA,NA,NA,"DOSE INCREASED"
"AB12345-GBR-3-id-80","AB12345","cl A.1","llt A.1.1.1.1","dcd A.1.1.1.1","hlt A.1.1.1","hlgt A.1.1","1","cl A","N","N","trm A.1.1.1.1","MILD","GBR","GBR-3","id-80",41.5160825881981,"M","ARM A","A: Drug X","ARM A","A: Drug X","ASIAN",2020-01-15 10:48:14.683,2022-01-14 22:48:14.683,731,2022-01-14,"C","S2",8.96423564079763,"LOW","Europe","Y","COMPLETED","COMPLETED",NA,NA,2022-01-06 10:48:14.683,722,2022-01-08 10:48:14.683,724,2021-12-21 04:32:34.645854,3,"RECOVERED/RESOLVED","Y","D.2.1.5.3/A.1.1.1.1 aesi",NA,NA,NA,NA,"DOSE NOT CHANGED"
"AB12345-JPN-1-id-21","AB12345","cl D.1","llt D.1.1.1.1","dcd D.1.1.1.1","hlt D.1.1.1","hlgt D.1.1","5","cl D","Y","Y","trm D.1.1.1.1","SEVERE","JPN","JPN-1","id-21",45.6816235762112,"M","ARM B","B: Placebo","ARM B","B: Placebo","ASIAN",2020-10-25 20:53:58.683,2022-10-26 08:53:58.683,731,2022-10-26,"C","S1",7.08989973611431,"LOW","Asia","Y","COMPLETED","COMPLETED",NA,NA,2021-07-19 20:53:58.683,267,2022-01-09 20:53:58.683,441,2021-06-08 13:39:59.751253,1,"FATAL","Y",NA,NA,NA,NA,NA,"NOT EVALUABLE"
"AB12345-JPN-11-id-135","AB12345","cl D.1","llt D.1.1.1.1","dcd D.1.1.1.1","hlt D.1.1.1","hlgt D.1.1","5","cl D","Y","Y","trm D.1.1.1.1","SEVERE","JPN","JPN-11","id-135",24.0881484376374,"F","ARM B","B: Placebo","ARM B","B: Placebo","ASIAN",2020-06-09 01:40:54.683,2022-06-09 13:40:54.683,731,2022-06-09,"A","S2",4.27932201939431,"HIGH","Asia","Y","COMPLETED","COMPLETED",NA,NA,2020-08-22 01:40:54.683,74,2021-07-19 01:40:54.683,405,2020-08-19 00:29:08.093605,1,"FATAL","Y",NA,NA,NA,NA,NA,"NOT EVALUABLE"
"AB12345-JPN-11-id-135","AB12345","cl C.2","llt C.2.1.2.1","dcd C.2.1.2.1","hlt C.2.1.2","hlgt C.2.1","2","cl C","N","Y","trm C.2.1.2.1","MODERATE","JPN","JPN-11","id-135",24.0881484376374,"F","ARM B","B: Placebo","ARM B","B: Placebo","ASIAN",2020-06-09 01:40:54.683,2022-06-09 13:40:54.683,731,2022-06-09,"A","S2",4.27932201939431,"HIGH","Asia","Y","COMPLETED","COMPLETED",NA,NA,2020-10-22 01:40:54.683,135,2021-07-16 01:40:54.683,402,2020-08-20 13:54:54.57937,2,"RECOVERED/RESOLVED WITH SEQUELAE","Y",NA,NA,NA,NA,NA,"DOSE NOT CHANGED"
"AB12345-JPN-11-id-135","AB12345","cl C.1","llt C.1.1.1.3","dcd C.1.1.1.3","hlt C.1.1.1","hlgt C.1.1","4","cl C","N","Y","trm C.1.1.1.3","SEVERE","JPN","JPN-11","id-135",24.0881484376374,"F","ARM B","B: Placebo","ARM B","B: Placebo","ASIAN",2020-06-09 01:40:54.683,2022-06-09 13:40:54.683,731,2022-06-09,"A","S2",4.27932201939431,"HIGH","Asia","Y","COMPLETED","COMPLETED",NA,NA,2022-03-07 01:40:54.683,636,2022-04-18 01:40:54.683,678,2021-03-10 11:23:07.106842,3,"UNKNOWN","Y",NA,"C.1.1.1.3/B.2.2.3.1 aesi","BROAD",NA,NA,"DOSE NOT CHANGED"
"AB12345-JPN-11-id-135","AB12345","cl B.1","llt B.1.1.1.1","dcd B.1.1.1.1","hlt B.1.1.1","hlgt B.1.1","5","cl B","Y","Y","trm B.1.1.1.1","SEVERE","JPN","JPN-11","id-135",24.0881484376374,"F","ARM B","B: Placebo","ARM B","B: Placebo","ASIAN",2020-06-09 01:40:54.683,2022-06-09 13:40:54.683,731,2022-06-09,"A","S2",4.27932201939431,"HIGH","Asia","Y","COMPLETED","COMPLETED",NA,NA,2022-03-23 01:40:54.683,652,2022-03-25 01:40:54.683,654,2021-08-02 05:49:24.071936,4,"FATAL","Y",NA,NA,NA,NA,NA,"NOT EVALUABLE"
"AB12345-JPN-11-id-135","AB12345","cl A.1","llt A.1.1.1.2","dcd A.1.1.1.2","hlt A.1.1.1","hlgt A.1.1","2","cl A","Y","N","trm A.1.1.1.2","MODERATE","JPN","JPN-11","id-135",24.0881484376374,"F","ARM B","B: Placebo","ARM B","B: Placebo","ASIAN",2020-06-09 01:40:54.683,2022-06-09 13:40:54.683,731,2022-06-09,"A","S2",4.27932201939431,"HIGH","Asia","Y","COMPLETED","COMPLETED",NA,NA,2022-03-25 01:40:54.683,654,2022-06-08 01:40:54.683,729,2020-12-09 14:26:55.273901,5,"RECOVERING/RESOLVING","Y",NA,NA,NA,NA,NA,"DOSE NOT CHANGED"
"AB12345-JPN-11-id-189","AB12345","cl C.2","llt C.2.1.2.1","dcd C.2.1.2.1","hlt C.2.1.2","hlgt C.2.1","2","cl C","N","Y","trm C.2.1.2.1","MODERATE","JPN","JPN-11","id-189",57.4783323792548,"M","ARM B","B: Placebo","ARM B","B: Placebo","BLACK OR AFRICAN AMERICAN",2019-06-12 05:09:20.683,2021-06-11 17:09:20.683,731,2021-06-11,"B","S2",8.69212688411291,"HIGH","Asia","Y","COMPLETED","COMPLETED",NA,NA,2019-12-13 05:09:20.683,184,2020-05-12 05:09:20.683,335,2019-10-15 18:51:42.298611,1,"RECOVERED/RESOLVED WITH SEQUELAE","Y",NA,NA,NA,NA,NA,"DOSE INCREASED"
"AB12345-JPN-11-id-189","AB12345","cl D.2","llt D.2.1.5.3","dcd D.2.1.5.3","hlt D.2.1.5","hlgt D.2.1","1","cl D","N","Y","trm D.2.1.5.3","MILD","JPN","JPN-11","id-189",57.4783323792548,"M","ARM B","B: Placebo","ARM B","B: Placebo","BLACK OR AFRICAN AMERICAN",2019-06-12 05:09:20.683,2021-06-11 17:09:20.683,731,2021-06-11,"B","S2",8.69212688411291,"HIGH","Asia","Y","COMPLETED","COMPLETED",NA,NA,2020-07-31 05:09:20.683,415,2020-08-02 05:09:20.683,417,2019-11-11 09:17:23.52911,2,"RECOVERED/RESOLVED WITH SEQUELAE","Y","D.2.1.5.3/A.1.1.1.1 aesi",NA,NA,NA,NA,"DOSE REDUCED"
"AB12345-JPN-11-id-189","AB12345","cl B.2","llt B.2.2.3.1","dcd B.2.2.3.1","hlt B.2.2.3","hlgt B.2.2","1","cl B","Y","N","trm B.2.2.3.1","MILD","JPN","JPN-11","id-189",57.4783323792548,"M","ARM B","B: Placebo","ARM B","B: Placebo","BLACK OR AFRICAN AMERICAN",2019-06-12 05:09:20.683,2021-06-11 17:09:20.683,731,2021-06-11,"B","S2",8.69212688411291,"HIGH","Asia","Y","COMPLETED","COMPLETED",NA,NA,2021-03-13 05:09:20.683,640,2021-04-29 05:09:20.683,687,2019-07-03 08:15:25.675428,3,"RECOVERED/RESOLVED","Y",NA,"C.1.1.1.3/B.2.2.3.1 aesi","BROAD",NA,NA,"NOT APPLICABLE"
"AB12345-JPN-11-id-189","AB12345","cl D.2","llt D.2.1.5.3","dcd D.2.1.5.3","hlt D.2.1.5","hlgt D.2.1","1","cl D","N","Y","trm D.2.1.5.3","MILD","JPN","JPN-11","id-189",57.4783323792548,"M","ARM B","B: Placebo","ARM B","B: Placebo","BLACK OR AFRICAN AMERICAN",2019-06-12 05:09:20.683,2021-06-11 17:09:20.683,731,2021-06-11,"B","S2",8.69212688411291,"HIGH","Asia","Y","COMPLETED","COMPLETED",NA,NA,2021-06-01 05:09:20.683,720,2021-06-05 05:09:20.683,724,2021-03-07 09:01:31.218102,4,"RECOVERED/RESOLVED WITH SEQUELAE","Y","D.2.1.5.3/A.1.1.1.1 aesi",NA,NA,NA,NA,"DOSE NOT CHANGED"
"AB12345-JPN-2-id-194","AB12345","cl D.2","llt D.2.1.5.3","dcd D.2.1.5.3","hlt D.2.1.5","hlgt D.2.1","1","cl D","N","Y","trm D.2.1.5.3","MILD","JPN","JPN-2","id-194",30.3346969446825,"F","ARM A","A: Drug X","ARM A","A: Drug X","ASIAN",2019-05-06 15:32:22.683,2021-05-06 03:32:22.683,731,2021-05-06,"A","S2",5.09910025834367,"LOW","Asia","Y","COMPLETED","COMPLETED",NA,NA,2019-11-02 15:32:22.683,180,2020-07-15 15:32:22.683,436,2019-05-15 07:26:20.097184,1,"NOT RECOVERED/NOT RESOLVED","Y","D.2.1.5.3/A.1.1.1.1 aesi",NA,NA,NA,NA,"UNKNOWN"
"AB12345-JPN-2-id-194","AB12345","cl A.1","llt A.1.1.1.1","dcd A.1.1.1.1","hlt A.1.1.1","hlgt A.1.1","1","cl A","N","N","trm A.1.1.1.1","MILD","JPN","JPN-2","id-194",30.3346969446825,"F","ARM A","A: Drug X","ARM A","A: Drug X","ASIAN",2019-05-06 15:32:22.683,2021-05-06 03:32:22.683,731,2021-05-06,"A","S2",5.09910025834367,"LOW","Asia","Y","COMPLETED","COMPLETED",NA,NA,2020-09-09 15:32:22.683,492,2020-11-12 15:32:22.683,556,2019-11-16 09:40:18.171469,2,"UNKNOWN","Y","D.2.1.5.3/A.1.1.1.1 aesi",NA,NA,NA,NA,"DRUG WITHDRAWN"
"AB12345-JPN-2-id-7","AB12345","cl D.1","llt D.1.1.4.2","dcd D.1.1.4.2","hlt D.1.1.4","hlgt D.1.1","3","cl D","N","N","trm D.1.1.4.2","MODERATE","JPN","JPN-2","id-7",40.3555808153919,"M","ARM A","A: Drug X","ARM A","A: Drug X","AMERICAN INDIAN OR ALASKA NATIVE",2019-09-02 22:57:04.683,2021-09-02 10:57:04.683,731,2021-09-02,"C","S1",1.09933700354187,"MEDIUM","Asia","Y","COMPLETED","COMPLETED",NA,NA,2019-10-28 22:57:04.683,56,2020-12-06 22:57:04.683,461,2019-10-13 10:04:15.716242,1,"NOT RECOVERED/NOT RESOLVED","Y",NA,NA,NA,NA,NA,"DRUG WITHDRAWN"
"AB12345-JPN-2-id-7","AB12345","cl D.2","llt D.2.1.5.3","dcd D.2.1.5.3","hlt D.2.1.5","hlgt D.2.1","1","cl D","N","Y","trm D.2.1.5.3","MILD","JPN","JPN-2","id-7",40.3555808153919,"M","ARM A","A: Drug X","ARM A","A: Drug X","AMERICAN INDIAN OR ALASKA NATIVE",2019-09-02 22:57:04.683,2021-09-02 10:57:04.683,731,2021-09-02,"C","S1",1.09933700354187,"MEDIUM","Asia","Y","COMPLETED","COMPLETED",NA,NA,2020-02-28 22:57:04.683,179,2021-03-09 22:57:04.683,554,2019-10-16 21:30:58.283564,2,"RECOVERED/RESOLVED","Y","D.2.1.5.3/A.1.1.1.1 aesi",NA,NA,NA,NA,"DOSE RATE REDUCED"
"AB12345-JPN-2-id-7","AB12345","cl A.1","llt A.1.1.1.1","dcd A.1.1.1.1","hlt A.1.1.1","hlgt A.1.1","1","cl A","N","N","trm A.1.1.1.1","MILD","JPN","JPN-2","id-7",40.3555808153919,"M","ARM A","A: Drug X","ARM A","A: Drug X","AMERICAN INDIAN OR ALASKA NATIVE",2019-09-02 22:57:04.683,2021-09-02 10:57:04.683,731,2021-09-02,"C","S1",1.09933700354187,"MEDIUM","Asia","Y","COMPLETED","COMPLETED",NA,NA,2020-11-09 22:57:04.683,434,2020-12-25 22:57:04.683,480,2020-04-22 16:47:13.398136,3,"RECOVERED/RESOLVED","Y","D.2.1.5.3/A.1.1.1.1 aesi",NA,NA,NA,NA,"NOT EVALUABLE"
"AB12345-JPN-2-id-7","AB12345","cl A.1","llt A.1.1.1.2","dcd A.1.1.1.2","hlt A.1.1.1","hlgt A.1.1","2","cl A","Y","N","trm A.1.1.1.2","MODERATE","JPN","JPN-2","id-7",40.3555808153919,"M","ARM A","A: Drug X","ARM A","A: Drug X","AMERICAN INDIAN OR ALASKA NATIVE",2019-09-02 22:57:04.683,2021-09-02 10:57:04.683,731,2021-09-02,"C","S1",1.09933700354187,"MEDIUM","Asia","Y","COMPLETED","COMPLETED",NA,NA,2021-04-19 22:57:04.683,595,2021-08-20 22:57:04.683,718,2020-02-22 17:10:12.238897,4,"RECOVERING/RESOLVING","Y",NA,NA,NA,NA,NA,"DOSE NOT CHANGED"
"AB12345-NGA-1-id-198","AB12345","cl B.2","llt B.2.2.3.1","dcd B.2.2.3.1","hlt B.2.2.3","hlgt B.2.2","1","cl B","Y","N","trm B.2.2.3.1","MILD","NGA","NGA-1","id-198",38.4644611110032,"F","ARM B","B: Placebo","ARM B","B: Placebo","ASIAN",2019-12-01 01:05:44.683,2021-11-30 13:05:44.683,731,2021-11-30,"B","S1",5.5962676977475,"LOW","Africa","Y","COMPLETED","COMPLETED",NA,NA,2019-12-16 01:05:44.683,15,2020-01-20 01:05:44.683,50,2019-12-11 01:40:55.246487,1,"RECOVERING/RESOLVING","Y",NA,"C.1.1.1.3/B.2.2.3.1 aesi","BROAD",NA,NA,"DRUG WITHDRAWN"
"AB12345-NGA-1-id-198","AB12345","cl A.1","llt A.1.1.1.1","dcd A.1.1.1.1","hlt A.1.1.1","hlgt A.1.1","1","cl A","N","N","trm A.1.1.1.1","MILD","NGA","NGA-1","id-198",38.4644611110032,"F","ARM B","B: Placebo","ARM B","B: Placebo","ASIAN",2019-12-01 01:05:44.683,2021-11-30 13:05:44.683,731,2021-11-30,"B","S1",5.5962676977475,"LOW","Africa","Y","COMPLETED","COMPLETED",NA,NA,2021-11-14 01:05:44.683,714,2021-11-18 01:05:44.683,718,2020-06-30 14:33:16.882313,2,"RECOVERED/RESOLVED WITH SEQUELAE","Y","D.2.1.5.3/A.1.1.1.1 aesi",NA,NA,NA,NA,"DOSE NOT CHANGED"
"AB12345-NGA-1-id-35","AB12345","cl B.2","llt B.2.2.3.1","dcd B.2.2.3.1","hlt B.2.2.3","hlgt B.2.2","1","cl B","Y","N","trm B.2.2.3.1","MILD","NGA","NGA-1","id-35",32.7721161169578,"F","ARM B","B: Placebo","ARM B","B: Placebo","ASIAN",2019-04-23 19:21:38.683,2021-04-23 07:21:38.683,731,2021-04-23,"C","S2",5.65604795056243,"LOW","Africa","Y","COMPLETED","COMPLETED",NA,NA,2019-10-24 19:21:38.683,184,2019-12-08 19:21:38.683,229,2019-09-30 12:45:44.898826,1,"RECOVERED/RESOLVED WITH SEQUELAE","Y",NA,"C.1.1.1.3/B.2.2.3.1 aesi","BROAD",NA,NA,"DOSE NOT CHANGED"
"AB12345-NGA-1-id-35","AB12345","cl B.1","llt B.1.1.1.1","dcd B.1.1.1.1","hlt B.1.1.1","hlgt B.1.1","5","cl B","Y","Y","trm B.1.1.1.1","SEVERE","NGA","NGA-1","id-35",32.7721161169578,"F","ARM B","B: Placebo","ARM B","B: Placebo","ASIAN",2019-04-23 19:21:38.683,2021-04-23 07:21:38.683,731,2021-04-23,"C","S2",5.65604795056243,"LOW","Africa","Y","COMPLETED","COMPLETED",NA,NA,2020-07-04 19:21:38.683,438,2021-03-08 19:21:38.683,685,2019-05-17 14:24:00.78807,2,"FATAL","Y",NA,NA,NA,NA,NA,"NOT EVALUABLE"
"AB12345-NGA-1-id-41","AB12345","cl B.1","llt B.1.1.1.1","dcd B.1.1.1.1","hlt B.1.1.1","hlgt B.1.1","5","cl B","Y","Y","trm B.1.1.1.1","SEVERE","NGA","NGA-1","id-41",32.8180841078248,"M","ARM B","B: Placebo","ARM B","B: Placebo","ASIAN",2020-08-22 17:03:42.683,2022-08-23 05:03:42.683,731,2022-08-23,"B","S2",8.3234716954516,"MEDIUM","Africa","Y","COMPLETED","COMPLETED",NA,NA,2020-10-02 17:03:42.683,41,2022-03-05 17:03:42.683,560,2020-08-27 09:42:19.119125,1,"FATAL","Y",NA,NA,NA,NA,NA,"NOT EVALUABLE"
"AB12345-NGA-11-id-200","AB12345","cl C.1","llt C.1.1.1.3","dcd C.1.1.1.3","hlt C.1.1.1","hlgt C.1.1","4","cl C","N","Y","trm C.1.1.1.3","SEVERE","NGA","NGA-11","id-200",36.0765126978146,"M","ARM C","C: Combination","ARM C","C: Combination","WHITE",2019-05-07 15:48:45.683,2021-05-07 03:48:45.683,731,2021-05-07,"B","S2",6.05759563596968,"HIGH","Africa","Y","COMPLETED","COMPLETED",NA,NA,2019-09-23 15:48:45.683,139,2019-10-09 15:48:45.683,155,2019-09-03 06:01:13.239751,1,"RECOVERING/RESOLVING","Y",NA,"C.1.1.1.3/B.2.2.3.1 aesi","BROAD",NA,NA,"DOSE RATE REDUCED"
"AB12345-NGA-11-id-200","AB12345","cl D.1","llt D.1.1.1.1","dcd D.1.1.1.1","hlt D.1.1.1","hlgt D.1.1","5","cl D","Y","Y","trm D.1.1.1.1","SEVERE","NGA","NGA-11","id-200",36.0765126978146,"M","ARM C","C: Combination","ARM C","C: Combination","WHITE",2019-05-07 15:48:45.683,2021-05-07 03:48:45.683,731,2021-05-07,"B","S2",6.05759563596968,"HIGH","Africa","Y","COMPLETED","COMPLETED",NA,NA,2020-05-18 15:48:45.683,377,2020-09-24 15:48:45.683,506,2020-03-29 18:10:54.52658,2,"FATAL","Y",NA,NA,NA,NA,NA,"NOT EVALUABLE"
"AB12345-NGA-11-id-200","AB12345","cl B.1","llt B.1.1.1.1","dcd B.1.1.1.1","hlt B.1.1.1","hlgt B.1.1","5","cl B","Y","Y","trm B.1.1.1.1","SEVERE","NGA","NGA-11","id-200",36.0765126978146,"M","ARM C","C: Combination","ARM C","C: Combination","WHITE",2019-05-07 15:48:45.683,2021-05-07 03:48:45.683,731,2021-05-07,"B","S2",6.05759563596968,"HIGH","Africa","Y","COMPLETED","COMPLETED",NA,NA,2020-07-21 15:48:45.683,441,2021-02-02 15:48:45.683,637,2019-10-21 03:01:30.814249,3,"FATAL","Y",NA,NA,NA,NA,NA,"NOT EVALUABLE"
"AB12345-NGA-11-id-200","AB12345","cl A.1","llt A.1.1.1.2","dcd A.1.1.1.2","hlt A.1.1.1","hlgt A.1.1","2","cl A","Y","N","trm A.1.1.1.2","MODERATE","NGA","NGA-11","id-200",36.0765126978146,"M","ARM C","C: Combination","ARM C","C: Combination","WHITE",2019-05-07 15:48:45.683,2021-05-07 03:48:45.683,731,2021-05-07,"B","S2",6.05759563596968,"HIGH","Africa","Y","COMPLETED","COMPLETED",NA,NA,2021-01-02 15:48:45.683,606,2021-02-18 15:48:45.683,653,2020-03-28 06:12:35.796359,4,"RECOVERED/RESOLVED","Y",NA,NA,NA,NA,NA,"DOSE INCREASED"
"AB12345-NGA-11-id-200","AB12345","cl D.1","llt D.1.1.4.2","dcd D.1.1.4.2","hlt D.1.1.4","hlgt D.1.1","3","cl D","N","N","trm D.1.1.4.2","MODERATE","NGA","NGA-11","id-200",36.0765126978146,"M","ARM C","C: Combination","ARM C","C: Combination","WHITE",2019-05-07 15:48:45.683,2021-05-07 03:48:45.683,731,2021-05-07,"B","S2",6.05759563596968,"HIGH","Africa","Y","COMPLETED","COMPLETED",NA,NA,2021-02-04 15:48:45.683,639,2021-03-01 15:48:45.683,664,2020-10-29 09:54:27.380543,5,"NOT RECOVERED/NOT RESOLVED","Y",NA,NA,NA,NA,NA,"DOSE NOT CHANGED"
"AB12345-NGA-11-id-46","AB12345","cl B.2","llt B.2.2.3.1","dcd B.2.2.3.1","hlt B.2.2.3","hlgt B.2.2","1","cl B","Y","N","trm B.2.2.3.1","MILD","NGA","NGA-11","id-46",28.2429372943703,"F","ARM A","A: Drug X","ARM A","A: Drug X","ASIAN",2019-11-28 03:14:41.683,2021-11-27 15:14:41.683,731,2021-11-27,"B","S1",4.83231018785095,"LOW","Africa","Y","COMPLETED","COMPLETED",NA,NA,2020-07-12 03:14:41.683,227,2021-05-13 03:14:41.683,532,2020-04-10 05:05:41.606341,1,"RECOVERED/RESOLVED","Y",NA,"C.1.1.1.3/B.2.2.3.1 aesi","BROAD",NA,NA,"DOSE NOT CHANGED"
"AB12345-NGA-11-id-46","AB12345","cl C.2","llt C.2.1.2.1","dcd C.2.1.2.1","hlt C.2.1.2","hlgt C.2.1","2","cl C","N","Y","trm C.2.1.2.1","MODERATE","NGA","NGA-11","id-46",28.2429372943703,"F","ARM A","A: Drug X","ARM A","A: Drug X","ASIAN",2019-11-28 03:14:41.683,2021-11-27 15:14:41.683,731,2021-11-27,"B","S1",4.83231018785095,"LOW","Africa","Y","COMPLETED","COMPLETED",NA,NA,2020-10-06 03:14:41.683,313,2021-01-26 03:14:41.683,425,2020-05-27 14:20:39.584311,2,"RECOVERED/RESOLVED","Y",NA,NA,NA,NA,NA,"DOSE NOT CHANGED"
"AB12345-NGA-11-id-46","AB12345","cl B.2","llt B.2.2.3.1","dcd B.2.2.3.1","hlt B.2.2.3","hlgt B.2.2","1","cl B","Y","N","trm B.2.2.3.1","MILD","NGA","NGA-11","id-46",28.2429372943703,"F","ARM A","A: Drug X","ARM A","A: Drug X","ASIAN",2019-11-28 03:14:41.683,2021-11-27 15:14:41.683,731,2021-11-27,"B","S1",4.83231018785095,"LOW","Africa","Y","COMPLETED","COMPLETED",NA,NA,2021-05-03 03:14:41.683,522,2021-07-13 03:14:41.683,593,2020-03-13 07:52:37.282995,3,"RECOVERING/RESOLVING","Y",NA,"C.1.1.1.3/B.2.2.3.1 aesi","BROAD",NA,NA,"NOT EVALUABLE"
"AB12345-NGA-11-id-46","AB12345","cl D.1","llt D.1.1.4.2","dcd D.1.1.4.2","hlt D.1.1.4","hlgt D.1.1","3","cl D","N","N","trm D.1.1.4.2","MODERATE","NGA","NGA-11","id-46",28.2429372943703,"F","ARM A","A: Drug X","ARM A","A: Drug X","ASIAN",2019-11-28 03:14:41.683,2021-11-27 15:14:41.683,731,2021-11-27,"B","S1",4.83231018785095,"LOW","Africa","Y","COMPLETED","COMPLETED",NA,NA,2021-08-25 03:14:41.683,636,2021-09-08 03:14:41.683,650,2020-12-02 21:39:39.338767,4,"NOT RECOVERED/NOT RESOLVED","Y",NA,NA,NA,NA,NA,"DOSE REDUCED"
"AB12345-NGA-11-id-72","AB12345","cl A.1","llt A.1.1.1.2","dcd A.1.1.1.2","hlt A.1.1.1","hlgt A.1.1","2","cl A","Y","N","trm A.1.1.1.2","MODERATE","NGA","NGA-11","id-72",37.4162197269373,"F","ARM C","C: Combination","ARM C","C: Combination","BLACK OR AFRICAN AMERICAN",2020-02-22 00:38:26.683,2022-02-21 12:38:26.683,731,2022-02-21,"B","S2",8.01119026411103,"LOW","Africa","Y","COMPLETED","COMPLETED",NA,NA,2020-07-08 00:38:26.683,137,2021-12-01 00:38:26.683,648,2020-04-07 17:29:57.168698,1,"RECOVERED/RESOLVED","Y",NA,NA,NA,NA,NA,"DRUG WITHDRAWN"
"AB12345-NGA-11-id-72","AB12345","cl B.2","llt B.2.2.3.1","dcd B.2.2.3.1","hlt B.2.2.3","hlgt B.2.2","1","cl B","Y","N","trm B.2.2.3.1","MILD","NGA","NGA-11","id-72",37.4162197269373,"F","ARM C","C: Combination","ARM C","C: Combination","BLACK OR AFRICAN AMERICAN",2020-02-22 00:38:26.683,2022-02-21 12:38:26.683,731,2022-02-21,"B","S2",8.01119026411103,"LOW","Africa","Y","COMPLETED","COMPLETED",NA,NA,2021-08-31 00:38:26.683,556,2021-11-23 00:38:26.683,640,2021-04-27 14:15:36.689197,2,"RECOVERED/RESOLVED","Y",NA,"C.1.1.1.3/B.2.2.3.1 aesi","BROAD",NA,NA,"DRUG INTERRUPTED"
"AB12345-NGA-11-id-72","AB12345","cl A.1","llt A.1.1.1.2","dcd A.1.1.1.2","hlt A.1.1.1","hlgt A.1.1","2","cl A","Y","N","trm A.1.1.1.2","MODERATE","NGA","NGA-11","id-72",37.4162197269373,"F","ARM C","C: Combination","ARM C","C: Combination","BLACK OR AFRICAN AMERICAN",2020-02-22 00:38:26.683,2022-02-21 12:38:26.683,731,2022-02-21,"B","S2",8.01119026411103,"LOW","Africa","Y","COMPLETED","COMPLETED",NA,NA,2021-12-15 00:38:26.683,662,2022-01-01 00:38:26.683,679,2021-02-11 15:09:09.184426,3,"NOT RECOVERED/NOT RESOLVED","Y",NA,NA,NA,NA,NA,"DRUG WITHDRAWN"
"AB12345-NGA-11-id-99","AB12345","cl B.2","llt B.2.2.3.1","dcd B.2.2.3.1","hlt B.2.2.3","hlgt B.2.2","1","cl B","Y","N","trm B.2.2.3.1","MILD","NGA","NGA-11","id-99",31.5405657805133,"M","ARM A","A: Drug X","ARM A","A: Drug X","ASIAN",2020-04-07 03:41:30.683,2022-04-07 15:41:30.683,731,2022-04-07,"B","S2",9.48025597772797,"LOW","Africa","Y","COMPLETED","COMPLETED",NA,NA,2020-04-20 03:41:30.683,13,2020-09-02 03:41:30.683,148,2020-04-10 17:55:46.073767,1,"NOT RECOVERED/NOT RESOLVED","Y",NA,"C.1.1.1.3/B.2.2.3.1 aesi","BROAD",NA,NA,"DOSE NOT CHANGED"
"AB12345-NGA-2-id-172","AB12345","cl D.2","llt D.2.1.5.3","dcd D.2.1.5.3","hlt D.2.1.5","hlgt D.2.1","1","cl D","N","Y","trm D.2.1.5.3","MILD","NGA","NGA-2","id-172",35.1583204318012,"F","ARM C","C: Combination","ARM C","C: Combination","BLACK OR AFRICAN AMERICAN",2020-08-17 00:53:10.683,2022-08-17 12:53:10.683,731,2022-08-17,"C","S2",19.1325210042196,"LOW","Africa","Y","COMPLETED","COMPLETED",NA,NA,2021-09-02 00:53:10.683,381,2021-09-17 00:53:10.683,396,2021-01-18 12:04:14.757163,1,"RECOVERED/RESOLVED WITH SEQUELAE","Y","D.2.1.5.3/A.1.1.1.1 aesi",NA,NA,NA,NA,"DOSE NOT CHANGED"
"AB12345-NGA-2-id-172","AB12345","cl C.1","llt C.1.1.1.3","dcd C.1.1.1.3","hlt C.1.1.1","hlgt C.1.1","4","cl C","N","Y","trm C.1.1.1.3","SEVERE","NGA","NGA-2","id-172",35.1583204318012,"F","ARM C","C: Combination","ARM C","C: Combination","BLACK OR AFRICAN AMERICAN",2020-08-17 00:53:10.683,2022-08-17 12:53:10.683,731,2022-08-17,"C","S2",19.1325210042196,"LOW","Africa","Y","COMPLETED","COMPLETED",NA,NA,2022-05-08 00:53:10.683,629,2022-06-29 00:53:10.683,681,2021-07-20 12:30:52.359581,2,"RECOVERED/RESOLVED","Y",NA,"C.1.1.1.3/B.2.2.3.1 aesi","BROAD",NA,NA,"DOSE NOT CHANGED"
